time,seconds_elapsed,z,y,x
1790963454115793000,0.10579296875,-0.06896481515467166,0.595093552583456,-0.4610228627245873
1790963454125873000,0.115872802734375,-0.3048924628794193,0.6309826120883226,-0.383903017360717
1790963454135953000,0.125952880859375,-0.3942337111085653,0.4330582395434379,-0.44511480723582203
1790963454146033000,0.136032958984375,-0.19950141260325907,0.24838965441286562,-0.5811038979366422
1790963454156113000,0.14611279296875,-0.002203647524118423,0.08264321189522743,-0.7974963126514106
1790963454166193000,0.15619287109375,0.05660276170969009,0.0892103153258562,-0.9188100314635783
1790963454176273000,0.16627294921875,0.04816401918828487,0.18250234700739382,-1.032202528822422
1790963454186353000,0.176352783203125,-0.19334931971430777,0.21538696399927137,-1.1159227953646331
1790963454196433000,0.186432861328125,-0.5180032986402511,0.22327450237870214,-1.1019560101367532
1790963454206513000,0.196512939453125,-0.6549328119963407,0.28554186572134493,-0.9252353883359581
1790963454216593000,0.206593017578125,-0.7207546529501676,0.3749281221359968,-0.7486522753097117
1790963454226673000,0.2166728515625,-0.6508768146038055,0.26709786201417446,-0.560808640339598
1790963454236753000,0.2267529296875,-0.6766787798583507,0.16748714870512485,-0.45493250996023415
1790963454246833000,0.2368330078125,-0.7815671413093804,0.21076631846129892,-0.36766916398368776
1790963454256913000,0.246912841796875,-0.8835381540089845,0.2263578553467989,-0.4123582736030221
1790963454266991900,0.256991943359375,-0.951365489566326,0.21429332354366779,-0.4911979284968227
1790963454277072000,0.26707177734375,-0.7846627692371606,0.11217325776219367,-0.40171624888367946
1790963454287151900,0.27715185546875,-0.44114451536536214,-0.005545359167456626,-0.16937829621396958
1790963454297232000,0.28723193359375,-0.045474633973836893,-0.10323474902510642,0.016800985740497706
1790963454307311900,0.297311767578125,0.17082009252011776,-0.17433073098957538,0.07205057927556335
1790963454317392000,0.307391845703125,0.04865209496617317,-0.3038876697510481,0.15661701431833205
1790963454327471900,0.317471923828125,-0.2256242803752422,-0.2318032612711191,0.11237754816263913
1790963454337552000,0.3275517578125,-0.46822190738320346,0.035739421901106835,0.1277024700012058
1790963454347631900,0.3376318359375,-0.473489618653059,0.4297317254692316,0.3216831464216113
1790963454357712000,0.3477119140625,-0.19026304413676262,0.6274246273458004,0.6575286737084388
1790963454367791900,0.3577919921875,0.3144055566340685,0.5074672915786504,0.8419344431843608
1790963454377872000,0.367871826171875,0.6225386088699102,0.15789689806103704,0.8776331677488982
1790963454387951900,0.377951904296875,0.7100479654967784,-0.25027181489765643,0.8041963948119432
1790963454398032000,0.388031982421875,0.4459954625278711,-0.3309662308126688,0.7595976668898016
1790963454408111900,0.39811181640625,0.1619727691978216,-0.3123918787240982,0.466803565017879
1790963454418192000,0.40819189453125,0.09669511812329291,-0.09239829771220684,0.508904375177063
1790963454428271900,0.41827197265625,1.1882143437892199,-0.475457119333744,1.1291470916621387
1790963454438352000,0.428351806640625,1.6798597968578337,-0.6739508161991834,0.6146897950656711
1790963454448431900,0.438431884765625,0.8029384306401014,-0.5919610997766256,1.1018161632746457
1790963454458512000,0.448511962890625,0.29062136094272134,-0.9258090235054492,1.541462841297686
1790963454468591900,0.458591796875,0.1384106918245554,-1.2028098553746938,1.4903380726076663
1790963454478672000,0.468671875,0.41595162191987034,-1.0958967100977897,1.3774158961743115
1790963454488750800,0.478750732421875,0.5107499665111302,-0.6482797838479281,0.6179308228135109
1790963454498830800,0.488830810546875,-0.19480390243679285,0.09556056113541125,-1.1780921782255172
1790963454508910800,0.498910888671875,-1.0029211970195173,0.835668149331212,-2.767741835065186
1790963454518991000,0.5089912109375,-1.3353373343795538,0.9961503877103328,-2.7470579434767366
1790963454529070800,0.51907080078125,-1.3761989215999841,-0.1636065078794956,-1.113050673994422
1790963454539150800,0.52915087890625,-1.0559662662476301,-1.0598767176896333,-0.06049450845122337
1790963454549230800,0.53923095703125,-0.5582116826489567,-0.94787063318789,0.2940940785545856
1790963454559310800,0.549310791015625,0.33178456145823,-0.5315244589924812,0.33738340437859293
1790963454569390800,0.559390869140625,0.6196347041219472,-0.6125099668085575,0.2742541635096073
1790963454579470800,0.569470947265625,0.21337767000347374,-0.8592565301895141,0.34308117762878537
1790963454589550800,0.57955078125,-0.15617226622551678,-1.0260434216707943,0.36016222241967916
1790963454599630800,0.589630859375,-0.343474414730072,-1.139981351017952,0.0891441182218492
1790963454609710800,0.5997109375,-0.41742461708188056,-1.1780915937036276,0.0639195144638419
1790963454619790800,0.609790771484375,-0.43329613995254035,-1.1698527576684952,0.22708733866512773
1790963454629870800,0.619870849609375,-0.5863923597335815,-1.1731026993751525,0.27423443589583035
1790963454639951000,0.629951171875,-0.7308763801224529,-1.3124147239536046,0.055715165220201014
1790963454650030800,0.64003076171875,-0.9136579824626445,-1.4384645313769577,-0.1869916212506592
1790963454660110800,0.65011083984375,-1.145224658498913,-1.3486913214713334,-0.23614245951920745
1790963454670190800,0.66019091796875,-1.1618740338742732,-1.129874383023381,-0.0827368815280497
1790963454680270800,0.670270751953125,-0.933157632702589,-0.814871445018053,0.17377017449736595
1790963454690350800,0.680350830078125,-1.0238129592049867,-0.2452577861279249,0.5233377915360033
1790963454700430800,0.690430908203125,-0.7082195810258388,-0.6877326733142137,-0.09575169979333877
1790963454710510800,0.7005107421875,-0.17636019099056718,-1.0482248583406208,-0.5158174790337682
1790963454720590800,0.7105908203125,-0.1609439741393551,-1.1703835035443306,-0.466257037051022
1790963454730670800,0.7206708984375,-0.6507815375357866,-1.408221368804574,-0.47022053385451434
1790963454740750800,0.730750732421875,-1.1089508374601602,-1.3117699963092804,-0.06851356425583362
1790963454750829800,0.740829833984375,-1.1843611754924057,-1.2462871780514717,0.06352817705869675
1790963454760909800,0.750909912109375,-0.8665759132921695,-1.163582591357827,0.06434168539866805
1790963454770989800,0.76098974609375,-0.1535544849425554,-0.9837363118171691,-0.058587067394703624
1790963454781069800,0.77106982421875,0.5676186856806278,-0.7164835515022278,-0.2594650290481746
1790963454791149800,0.78114990234375,1.2659773824274538,-0.4377975430250168,-0.5823023139409721
1790963454801229300,0.791229248046875,1.9197627779543398,-0.08222235613465309,-0.5724944019582122
1790963454811309000,0.80130908203125,2.0975264060020447,0.2795528544396162,-0.35165012240111826
1790963454821389300,0.811389404296875,1.6972329564630984,0.6443184790015221,-0.1808441314715892
1790963454831469000,0.821468994140625,1.0486533128857611,0.951274304151535,0.02919993712976575
1790963454841549000,0.831549072265625,0.3934019364595413,1.1612556097149849,-0.028163141427934166
1790963454851629000,0.841629150390625,0.07469020706415176,1.612396618437767,0.02778334833011031
1790963454861709000,0.851708984375,-0.2078781958043575,1.63533033477962,-0.25934169492945075
1790963454871789300,0.861789306640625,-0.20296236671209333,1.1307535039454697,-1.1458647099681198
1790963454881869000,0.871869140625,-0.0826315214574337,0.7876110976487398,-0.944968116679415
1790963454891949000,0.881948974609375,-0.01768704786002636,0.68828037032485,-0.5238241868134588
1790963454902029000,0.892029052734375,-0.17007833424210547,0.6777893714487552,-0.04690357079841196
1790963454912109000,0.902109130859375,0.2835696523329243,0.7542734761923551,0.16780768589638173
1790963454922189300,0.912189208984375,0.8842425028860569,0.7858025869220495,0.5219624115295708
1790963454932269000,0.92226904296875,1.0283388391315937,0.8615648071318864,0.5806613418009132
1790963454942349300,0.932349365234375,0.828368639972806,0.9289362156152725,0.3664128072470426
1790963454952429000,0.942428955078125,0.6334155383236706,0.8824550349473953,-0.038124198145791884
1790963454962509000,0.952509033203125,0.6150758717738092,0.8995470395237207,-0.3787957573495805
1790963454972589000,0.962589111328125,0.7379938109122216,0.9142442579180001,-0.3427366019748151
1790963454982669000,0.9726689453125,1.0566361283332109,0.680266575217247,-0.4180846153605729
1790963454992749300,0.982749267578125,1.0936112295091152,0.5731710591107606,-0.4386653388354927
1790963455002829000,0.9928291015625,0.9131316205009817,0.5659820243895054,-0.4788259381797164
1790963455012909000,1.002908935546875,0.5953266306869686,0.4778671030849218,-0.5263149076506495
1790963455022989000,1.012989013671875,0.4019891475409269,0.3451899864763021,-0.4607753907695412
1790963455033068300,1.023068359375,0.15746785899400711,0.15635025314092635,-0.30295594185888763
1790963455043148000,1.03314794921875,-0.14258140163794158,-0.16410159792006015,0.2276332090448588
1790963455053228000,1.04322802734375,-0.3615338030338287,-0.6845125422239303,0.7201078064139932
1790963455063308300,1.053308349609375,-0.709289840605855,-1.0457575914442538,0.8304903083018959
1790963455073388000,1.063387939453125,-1.0410545283198356,-1.3309569273382424,0.4471989200334996
1790963455083468300,1.07346826171875,-0.9963375808455049,-1.6659569437116384,-0.10781995792351662
1790963455093548000,1.083548095703125,-0.21956205772683024,-1.6194132192015647,-0.15926139134727418
1790963455103628000,1.0936279296875,0.8784463838279247,-1.232401276040077,-0.26001630625538524
1790963455113708000,1.1037080078125,1.5341940193384884,-0.8335305527806282,-0.47486309896335005
1790963455123788000,1.1137880859375,1.5839619665920734,-0.6836983032315969,-0.49257550046034154
1790963455133868300,1.123868408203125,1.142716913461685,-0.7782698533296585,-0.4736269812971353
1790963455143948000,1.133947998046875,0.39768019830062984,-0.860025176474452,-0.36275063147768377
1790963455154028300,1.1440283203125,-0.21865108036175368,-1.0953168643832205,-0.27659882693961263
1790963455164108000,1.15410791015625,-0.33012934159711,-1.2864882555365562,-0.008589256907999516
1790963455174188000,1.16418798828125,-0.1362370010472834,-1.4131921429544687,0.1527051015716046
1790963455184268300,1.174268310546875,0.29463819536864755,-1.3259499128311871,0.24541341508105396
1790963455194348000,1.18434814453125,0.7335662037283182,-1.2230161925792693,0.17835202239491044
1790963455204428300,1.19442822265625,0.8241974917680025,-1.2342495342552662,-0.20803126747421918
1790963455214508000,1.204508056640625,0.6775685683049261,-1.074385135513544,-0.1628806778229773
1790963455224588000,1.214588134765625,0.5692300664000213,-1.0102391188174487,-0.2205522378079593
1790963455234668000,1.22466796875,0.48993748010694976,-0.7790566197931766,-0.39069512518625704
1790963455244748000,1.234748046875,0.46973465003371234,-0.7184639116644859,-0.23135453112293033
1790963455254828300,1.244828369140625,0.5642513281393796,-0.901169087767601,-0.13986337485089897
1790963455264908000,1.254907958984375,0.5156242945492268,-1.2015256607830525,-0.21769001677725464
1790963455274988300,1.26498828125,0.5199777770509943,-1.1692091990679503,-0.2205294049216434
1790963455285068000,1.275068115234375,0.6569733779132366,-0.4804425065308809,0.16741757233394308
1790963455295148000,1.28514794921875,0.22344576729238033,0.6460661994516849,0.6864427796341478
1790963455305228300,1.295228271484375,-0.17937632394134997,1.1361398731589316,0.5379154752038419
1790963455315308000,1.30530810546875,0.09903143385006115,1.0406763426572083,-0.10930453392546623
1790963455325388300,1.31538818359375,0.037599370554089545,1.1739414882868529,-0.2998724062277004
1790963455335467000,1.325467041015625,-0.3157634009838104,1.9742180062413215,0.3728502198833972
1790963455345547300,1.33554736328125,-0.6744236944079399,2.7006337536931038,0.2335280027044937
1790963455355627000,1.345626953125,-1.0345306795090436,3.4149516515940426,0.4136080544684082
1790963455365707300,1.355707275390625,-1.0506652372300624,3.578045533776283,0.2878178478293121
1790963455375787000,1.365787109375,-0.5134013578027486,3.070691639444232,0.057869932101294395
1790963455385867000,1.375866943359375,0.3932984760850668,2.424447745338082,-0.17855123476143925
1790963455395947300,1.385947265625,1.2150848150581122,1.9011586152493953,-0.30767270471509545
1790963455406027000,1.396027099609375,1.3975678728431462,1.5327771382778883,-0.00919726927112788
1790963455416107300,1.406107177734375,1.247090311127901,0.9814572609692811,0.08242693879604339
1790963455426187000,1.41618701171875,1.0380167680591343,0.6499544390618801,0.31622747483160346
1790963455436267300,1.426267333984375,0.38335575874149797,0.656515697273612,0.5518030577156693
1790963455446347300,1.43634716796875,-0.17976503099799154,0.8377800269186496,0.39067357094157484
1790963455456427000,1.446427001953125,-0.39649058665726333,0.8641255975306034,0.045041137927398084
1790963455466507300,1.45650732421875,-0.31197394557297226,0.7496160057753324,-0.039934024046733976
1790963455476587000,1.4665869140625,-0.1955207454692572,0.6341963134378195,0.011208353365212679
1790963455486667300,1.476667236328125,-0.2679419481555,0.44083939493894575,-0.09587247662879526
1790963455496747000,1.4867470703125,-0.2582091107029468,0.268120775321126,-0.23288583234343677
1790963455506827000,1.496826904296875,-0.19086400570459663,0.3976812212139368,-0.12042962945401668
1790963455516907300,1.5069072265625,-0.1557815864074975,0.4370627990096807,-0.16072236727792769
1790963455526987000,1.516987060546875,-0.11149820804484188,0.3481494208037853,-0.0659393298536539
1790963455537067300,1.5270673828125,0.30653372728042305,0.3091723321557045,0.09475916335834189
1790963455547147000,1.53714697265625,0.6468160679709166,0.24416999089121816,0.06826861305143683
1790963455557227000,1.54722705078125,0.5604932907801121,0.39337621749639506,-0.0418629462826997
1790963455567307300,1.557307373046875,0.2968060409270227,0.5260170937478542,-0.19435380231542512
1790963455577387000,1.567386962890625,0.1314338385492563,0.46685412616133687,-0.45807975847739724
1790963455587467300,1.57746728515625,0.3914823665738106,0.2110369520962238,-0.6228009130679071
1790963455597547000,1.587547119140625,0.9968108974456786,-0.20378128187954425,-0.8009512754108756
1790963455607627300,1.597627197265625,1.0993903974324464,-0.5746697732359171,-0.8022752905562519
1790963455617707000,1.60770703125,0.9589373130600899,-0.44333004271090026,-0.6232824860397725
1790963455627787000,1.617787109375,0.8462644352126866,-0.13252572543919086,-0.6327480873908847
1790963455637867300,1.6278671875,1.0784779577851296,-0.14686054026186465,-0.6494960277698933
1790963455647947000,1.637947021484375,1.5075322223842142,-0.13005553593337535,-0.5052166631076485
1790963455658027300,1.64802734375,1.1995464696645737,0.0316495222389698,-0.5745139616196975
1790963455668107000,1.65810693359375,0.5315986202072351,0.16982289817631244,-0.6595877981953322
1790963455678187000,1.66818701171875,0.19822182112149894,0.006501052457094192,-0.6128067212654277
1790963455688267300,1.678267333984375,0.05696041604094207,-0.29544951175153256,-0.3900191986860707
1790963455698346200,1.68834619140625,0.20755429761223493,-0.7923153298169374,-0.154009389103204
1790963455708426200,1.69842626953125,0.2715687238179147,-1.3837193802326917,0.007613324547931551
1790963455718506000,1.708506103515625,-0.20386545303165912,-1.883542294538021,0.3200320182137191
1790963455728586200,1.718586181640625,-0.7539947323162108,-2.266363215750456,0.749455408386141
1790963455738666000,1.728666015625,-1.0134785391300916,-2.5836604021728036,0.9678189770434051
1790963455748746200,1.738746337890625,-0.8151099299490452,-2.755592839848995,0.8149937562234699
1790963455758826000,1.748825927734375,-0.5991722732644528,-2.7847154739588498,0.7330807582989335
1790963455768906200,1.75890625,-0.24667590929754077,-2.717670228689909,0.7382211168620735
1790963455778986200,1.768986328125,0.39803832755591717,-2.5798136636167763,0.8262728367373346
1790963455789066000,1.77906591796875,0.6486866110831498,-2.245655943286419,0.7800550562459975
1790963455799146500,1.789146484375,0.42968204110860825,-1.706506396242976,0.5723301878398284
1790963455809226500,1.7992265625,0.14933367064343764,-0.8779846115350722,0.46393904243223366
1790963455819306500,1.809306396484375,-0.07483105857325717,-0.10610065985023975,0.26339838644172997
1790963455829386500,1.819386474609375,-0.04680618397169746,0.683311934262514,0.23944720015302298
1790963455839466200,1.82946630859375,-0.023455109867453573,1.5638398005396126,0.4294928021468222
1790963455849546500,1.83954638671875,-0.014961422288417816,2.246209485515952,0.6252934605360031
1790963455859626500,1.84962646484375,-0.10251870971024035,2.8127374533504246,0.7345712160523981
1790963455869706500,1.85970654296875,-0.6787924110114574,3.1695471504718062,0.7885852033779025
1790963455879786500,1.869786376953125,-1.584236691880226,3.2446096979796883,1.0176567746628076
1790963455889866200,1.8798662109375,-2.386754266759753,3.009422639489174,1.1093350144721568
1790963455899946500,1.889946533203125,-2.5929618990033863,3.4250767397671935,0.7973707135103643
1790963455910026200,1.900026123046875,-2.2529490229040383,3.535594047015905,0.5338507099829614
1790963455920106500,1.9101064453125,-1.5431810433924198,2.8816292032688855,0.5591985747944563
1790963455930186500,1.9201865234375,-0.578200285449624,1.7726982395529747,0.4337446874376386
1790963455940266500,1.9302666015625,0.029093956004641947,0.3344248468339443,0.2790669706188142
1790963455950346500,1.940346435546875,0.4807849998256191,-0.7795166385203599,-0.03627820495292544
1790963455960426200,1.95042626953125,1.1142968746632338,-1.3010522029399871,-0.4793123334571719
1790963455970506500,1.960506591796875,1.4918372251242398,-1.1871902614384888,-0.37672165448926387
1790963455980586500,1.97058642578125,1.3346119427144527,-0.7966442989319562,0.019865926269069314
1790963455990666500,1.98066650390625,0.7855787150382996,-0.6220750830113887,0.28744039281904693
1790963456000746500,1.99074658203125,0.4489746975343674,-0.3997504287034273,0.302893690277636
1790963456010826200,2.000826171875,0.5262918190360069,-0.0686409900277853,0.08606383399367332
1790963456020906500,2.010906494140625,0.774039083892107,0.40803894909918303,0.05608078366219997
1790963456030986200,2.020986328125,0.9638304919291287,0.6817565215140581,-0.1610289124764502
1790963456041066500,2.03106640625,0.849053116083145,0.4220364947915077,-0.31343451964482666
1790963456051146500,2.041146484375,0.4020686425179243,-0.547015458112955,-0.4195264847319573
1790963456061226200,2.051226318359375,0.08657127205915749,-1.4944307487487791,-0.8029145383078604
1790963456071306500,2.061306396484375,0.21324819840490816,-1.712655566522479,-0.8696420959297567
1790963456081386200,2.07138623046875,0.7591121483951807,-0.9941261884063481,-0.6715940970052033
1790963456091466500,2.081466552734375,1.2104454648196696,-0.037010757011175156,-0.6608074031181633
1790963456101546500,2.09154638671875,1.3253782504230738,0.5618693283736705,-0.6529346969816834
1790963456111626500,2.10162646484375,0.9394641124356538,1.3130121053248642,-0.7575106314826756
1790963456121706500,2.11170654296875,0.28378187031149865,1.8081529992938041,-0.5704783859606832
1790963456131785500,2.121785400390625,-0.5239584441849962,1.3335691556632518,-0.5523385528318584
1790963456141865500,2.131865478515625,-1.0463228241115807,0.25351240425407884,-0.6031457800053059
1790963456151945500,2.141945556640625,-1.0803729777514934,-1.3845219287872315,0.21583521922342477
1790963456162025500,2.152025390625,-0.14334281446449457,-1.7272937482059,0.09133848646096884
1790963456172105200,2.162105224609375,0.8418382893335074,-0.23468378514349458,-0.48770756563041356
1790963456182185500,2.172185546875,1.1153875194441527,1.4738444723159074,-0.4331512150565162
1790963456192265500,2.182265380859375,0.24284889835529028,2.0213310550719497,-0.0024825009981170295
1790963456202345500,2.192345458984375,-0.6959446213424205,1.6928274149805307,0.8426097851626575
1790963456212425500,2.202425537109375,-0.8207897291511297,0.693388507118821,0.6467582733690739
1790963456222505200,2.212505126953125,-0.42321258936617523,-0.3952005103141069,0.2333952066376805
1790963456232585500,2.22258544921875,0.018339885745570064,-0.844293938857317,0.21613252166956662
1790963456242665500,2.23266552734375,0.029114998792670665,-1.0356669900625943,0.21233126622308043
1790963456252745500,2.242745361328125,0.02662321850955486,-1.2282622765392064,0.4200900734314695
1790963456262825500,2.252825439453125,0.03549220567438751,-0.3931546837002039,-0.04073814350385219
1790963456272905500,2.262905517578125,0.7914139970630407,0.46409401379823684,0.26579562030918896
1790963456282985500,2.2729853515625,0.996226375555992,0.7269839027285575,0.011647767695784569
1790963456293065200,2.283065185546875,-0.20284896946549413,0.24409400304555892,-0.2245562127523124
1790963456303145500,2.2931455078125,-1.4281985734283924,-0.3861053497105837,-0.1520205168409273
1790963456313225500,2.3032255859375,-1.2886796281009911,-0.834562233915925,-0.18514741815607993
1790963456323305500,2.313305419921875,-0.6831745716184378,-0.5531693045675754,-1.270798957365006
1790963456333385500,2.323385498046875,-0.22882804485261438,-0.5258189408272504,-1.8572744653373956
1790963456343465200,2.33346533203125,0.27711832076907156,-0.1941840169727802,-1.770849396815896
1790963456353545500,2.34354541015625,0.4589684144128114,0.12352058120667933,-1.1542647279143332
1790963456363625500,2.35362548828125,0.6115250474244356,0.023364508974552153,0.08642579917386174
1790963456373705500,2.36370556640625,1.1281214018762111,-0.10179273352324962,0.5707705007750541
1790963456383785500,2.373785400390625,0.7242828270763159,-0.3132622318178415,-0.10768836743310094
1790963456393865500,2.383865478515625,0.20732406905293463,-0.15854922448992728,-0.41518874778859316
1790963456403945500,2.393945556640625,-0.07311492057144642,-0.05007891289889812,-0.5192724417932332
1790963456414025200,2.404025146484375,0.2001765353858471,0.2392851414591074,-0.6007682372190057
1790963456424105500,2.41410546875,0.7718675850719213,0.4431289671808481,-0.7967945210576057
1790963456434185500,2.424185546875,0.6386352457333355,0.9053776453733444,-0.04108348634280264
1790963456444265500,2.434265380859375,0.311980448378995,0.6557032118469477,0.2796569358685985
1790963456454345500,2.444345458984375,0.20703056599907577,0.17675532778799533,0.5500723979981615
1790963456464425200,2.45442529296875,0.10801493250634521,0.15961188528537748,1.0001024863369763
1790963456474505500,2.46450537109375,0.13829546794705092,-0.2823012763649225,0.6524455252252519
1790963456484585500,2.47458544921875,0.12332641034144907,-0.4867465751111507,0.5622452490139752
1790963456494665500,2.48466552734375,0.32490700383894144,-0.6345078636050224,0.36407289305739104
1790963456504745500,2.494745361328125,0.6892384017020463,0.07197159575521946,-0.6592541823267937
1790963456514825500,2.504825439453125,0.5307440126718953,0.668694210845232,-0.28482706851549444
1790963456524905500,2.514905517578125,-0.025464732656814155,1.1956132218688726,-0.2568125417780131
1790963456534985200,2.524985107421875,-0.5165156904309988,1.1455915921151638,-0.46646012187507
1790963456545065500,2.5350654296875,-1.1674369286984205,0.7206301497876644,-0.5092818667199462
1790963456555145500,2.5451455078125,-1.2327590034365654,-0.0995282957226038,-0.3854273773837834
1790963456565225500,2.5552255859375,-0.3383639398485422,-0.6235363877356052,-0.699202892486006
1790963456575305500,2.565305419921875,0.8092840733397751,-0.7109107198059559,-0.7276532533574849
1790963456585385200,2.57538525390625,1.5375281321972607,-0.4956657946258783,-0.7087875171069056
1790963456595465500,2.585465576171875,1.2490817772060632,-0.33299276820421214,-0.13131393849663436
1790963456605545500,2.59554541015625,0.659423109152913,0.20603812089562415,0.20026947436630724
1790963456615625500,2.60562548828125,0.9217202928870916,-0.11000760416090488,-0.25313378020003435
1790963456625705500,2.61570556640625,0.6657248396456241,-0.3475584691733122,-0.4073249556109309
1790963456635785200,2.62578515625,-0.029234277790784833,-0.8120131329774856,0.21933665147311984
1790963456645865500,2.635865478515625,-0.3641998073726892,-0.6990367421388626,-0.3636944881990552
1790963456655945200,2.6459453125,-0.20450722153391687,-0.7550871306627989,-0.5089505158737302
1790963456666025500,2.656025390625,-0.4737532380253076,-0.08461655779480934,-0.4029312506966293
1790963456676105500,2.66610546875,-0.7125836214542388,1.6610791085422039,-0.15354790907129645
1790963456686185500,2.676185546875,-1.2254852130413054,2.6262556813180447,-0.19107194936685262
1790963456696264400,2.686264404296875,-1.3402648539096116,1.8544155687749384,0.35353308660350735
1790963456706344400,2.696344482421875,-0.4107289188355207,0.5112152459353209,0.22916253750398755
1790963456716424400,2.706424560546875,0.010047328495513647,0.16038754583299158,-0.13116758882850407
1790963456726504400,2.71650439453125,0.43199908587932584,-0.18316344126462936,0.21733122993484139
1790963456736584400,2.72658447265625,0.9926128612339497,-0.8853279600352049,-0.001518733999878168
1790963456746664400,2.73666455078125,1.1290344250679016,-0.751589936196804,-0.5032811650004237
1790963456756744400,2.746744384765625,0.8308136950373649,0.66338266043365,-0.6208489022172987
1790963456766824400,2.756824462890625,0.44432489896714683,0.6242763924479484,-1.1066286050576717
1790963456776904400,2.766904541015625,-0.25748189240694047,0.8223714453846216,-1.4593459913641214
1790963456786984400,2.776984375,-0.7845628159940242,0.704537677642703,-1.411677062216401
1790963456797064200,2.787064208984375,-0.9652519760996102,0.512533342796564,-0.5587754540115595
1790963456807144200,2.797144287109375,-0.6678466541051864,0.25855390555262564,-0.09759316294156015
1790963456817224200,2.80722412109375,0.02517243517935276,-0.3188286337733269,-0.39865181981176134
1790963456827304200,2.81730419921875,0.5988420914620161,0.1513759718596935,-0.13558043683469295
1790963456837384200,2.82738427734375,0.7857277681201696,0.5930301903128624,0.6263772371847182
1790963456847464200,2.837464111328125,1.8436773171395062,1.1403624592900274,0.9252581116244196
1790963456857544200,2.847544189453125,1.4198574460625648,1.3659201041698454,1.390192083378136
1790963456867624200,2.857624267578125,-0.7934341047137975,1.3966180247724056,1.1151368326187132
1790963456877704200,2.8677041015625,-1.983618287271261,1.536516909328103,0.2298980852369219
1790963456887784200,2.8777841796875,-1.8763497526854276,1.4116256242901086,-0.6838735136680305
1790963456897864200,2.8878642578125,-1.1584253547251224,0.7651596118658781,-1.3063026708140968
1790963456907944200,2.897944091796875,-0.3323930487453937,0.31154899815917014,-1.4486445646077393
1790963456918024000,2.90802392578125,-0.08278462965991347,-0.19708266102373598,-0.7688771710842848
1790963456928104200,2.918104248046875,-0.08926584490537642,-0.39499358956515784,0.054747781492769716
1790963456938184200,2.92818408203125,0.5094447291314601,-0.04364975663423538,0.18114537944048642
1790963456948264200,2.93826416015625,0.5165216087151319,-0.28586335276067254,0.448068615540117
1790963456958344200,2.94834423828125,0.26027298443019387,-0.8558353235691786,0.4180615998111665
1790963456968424200,2.958424072265625,0.6202893686383962,-1.5404495726019143,0.3778882871158421
1790963456978504200,2.968504150390625,0.5446826312512159,-2.8387790725797415,1.089588549864292
1790963456988584200,2.978584228515625,0.7003308736026287,-4.458356542432308,2.0645725231662393
1790963456998664200,2.988664306640625,1.7505220635801553,-3.9017818133354183,1.4114889922983944
1790963457008744200,2.998744140625,2.6874019316762685,-2.416528058254719,0.9957403456047177
1790963457018824200,3.00882421875,1.982926213353872,-0.5570914464473724,1.5759563547909259
1790963457028904200,3.018904296875,1.5926175667345523,1.8185551508426665,1.1939441196128726
1790963457038984000,3.02898388671875,1.0744628769248723,3.204437846589088,0.11551190066561103
1790963457049064200,3.039064208984375,-0.5976636953324079,3.099893768531084,-0.5924040212385356
1790963457059144200,3.049144287109375,-0.9680699561297893,1.0184276859700678,-0.3938922041945159
1790963457069224200,3.05922412109375,-0.32849311869740483,-1.131599891641736,-1.2759206842929125
1790963457079304200,3.06930419921875,-0.11197218223214149,-2.4955706153094765,-1.862956310366094
1790963457089384200,3.07938427734375,-0.8361737607657909,-3.1885382666677233,-0.41228455077968534
1790963457099464200,3.089464111328125,-1.76601130913496,-3.7203105629414317,0.5202944783173501
1790963457109544200,3.099544189453125,-0.43748307024836536,-4.934262574577331,-0.1868423489730805
1790963457119624200,3.109624267578125,0.2832207292973995,-4.564730758526921,-0.8929994445111602
1790963457129704200,3.1197041015625,1.2047405311763286,-1.9305711722165344,-0.9576376286383718
1790963457139784200,3.1297841796875,1.0161305149435997,1.1766606841176748,-1.3413701848030088
1790963457149864200,3.1398642578125,-0.8653788124620914,3.0527877339631315,-0.4134951686784625
1790963457159944000,3.14994384765625,-1.1746084277629851,3.435264956304431,-0.4024919824965298
1790963457170024200,3.160024169921875,-1.1225169329326599,3.355584101346135,-0.4167711216092109
1790963457180104200,3.170104248046875,-1.3427812206447123,2.815111196744442,1.146775248941779
1790963457190184200,3.18018408203125,-1.3950059134006498,-0.47211365412473677,2.8760639703571793
1790963457200264200,3.19026416015625,-1.2809376356720923,-2.801346875286102,3.044890843233466
1790963457210344200,3.20034423828125,-0.8009387812554836,-2.82830034866333,2.0241572184085843
1790963457220424200,3.210424072265625,-0.5901964281916618,0.16605448555350302,0.6178079270862042
1790963457230504200,3.220504150390625,-0.613141250449419,2.3184704196065664,-0.7639783661920577
1790963457240584200,3.230584228515625,-0.7995312525451183,4.264320994019508,-1.930174866375327
1790963457250664200,3.240664306640625,-0.6559142242491245,3.7448143050789833,-1.6967071790233252
1790963457260744200,3.250744140625,-0.7263356679528952,0.9518167404651642,-0.8537632665354759
1790963457270824200,3.26082421875,0.4653372918576002,-0.37547932627797126,-0.8507505676507949
1790963457280904000,3.270904052734375,1.5257979469150305,-0.37735681058764453,-0.9166124483540654
1790963457290984200,3.280984130859375,1.6045751310318708,-0.41709319317042826,-0.7348636231277138
1790963457301064200,3.291064208984375,0.958904068377614,-0.20380875440835952,-0.7704325838327407
1790963457311144200,3.301144287109375,0.2186713924974203,0.10199790070652962,-0.5270275128994136
1790963457321224200,3.31122412109375,-0.3106137631356716,0.5581733964651823,-0.5253239238519222
1790963457331304200,3.32130419921875,0.7756646392673253,0.8004711637437343,-0.8505743343010544
1790963457341384200,3.33138427734375,0.6976379812568426,0.8107493966519832,-0.11990092940479516
1790963457351464200,3.341464111328125,1.1541752960652112,0.788399617677927,-0.23263057894073425
1790963457361544200,3.351544189453125,2.1264000337868927,0.7742652938634157,0.17876169917434453
1790963457371624200,3.361624267578125,2.5487907488435506,0.720608522477746,1.127400467190519
1790963457381704200,3.3717041015625,2.143796574267745,-0.07822071927785873,1.7558289378166199
1790963457391784200,3.3817841796875,1.0045628267467022,-1.6822025605916977,2.387924333452433
1790963457401864000,3.391864013671875,-0.27245621070954945,-0.8312468257576227,0.3607874416459352
1790963457411944200,3.401944091796875,-1.2076672322779893,-0.05418517917394638,-1.6605349186629057
1790963457422024200,3.412024169921875,-1.6345821467608213,-0.2563309688061476,-1.8418496633209287
1790963457432104200,3.422104248046875,-2.1534318330973385,-0.808994661939144,-1.2329691390559077
1790963457442184200,3.43218408203125,-1.9584937828868627,-0.2588081725746393,-0.49667694442979987
1790963457452264200,3.44226416015625,-1.3229659285843371,0.19575228920280932,0.16300240450650452
1790963457462344200,3.45234423828125,-0.679817077884078,-0.019487375280261038,0.1847158583384007
1790963457472424200,3.462424072265625,0.05712243820223957,-0.33943829108178614,-0.1246058922253549
1790963457482504200,3.472504150390625,0.6739917327314615,-0.3822235398411751,-0.08594276489727198
1790963457492584200,3.482584228515625,0.9099638041198254,-0.15775427471995354,0.24097747846022247
1790963457502664200,3.492664306640625,0.983511343954876,0.07502922976016999,0.7488975553076714
1790963457512744200,3.502744140625,0.8503361416310071,0.24646774643957614,1.149755726057291
1790963457522824000,3.512823974609375,0.4127805906683206,0.17805296638309956,1.1443467066206037
1790963457532904200,3.522904296875,-0.1528232845911756,0.29294366641044617,0.7376561033904552
1790963457542984200,3.532984130859375,-0.47454409614205356,0.23741584045588968,-0.01941737878397107
1790963457553064200,3.543064208984375,-0.33242753553688525,-0.04074643640816211,-0.5075453983161599
1790963457563144200,3.553144287109375,0.031736031478643414,-0.16515958254039287,-0.5896542110737413
1790963457573224200,3.56322412109375,0.5411316607713699,-0.26617314838469025,-0.6444458317082374
1790963457583304200,3.57330419921875,1.043276880544424,-0.19315408940315246,-0.4788650280810892
1790963457593384200,3.58338427734375,1.4106938963979483,-0.018604747226834296,0.1514650383826345
1790963457603464200,3.593464111328125,1.2082920861780644,0.14293079959750174,0.651326823393628
1790963457613544200,3.603544189453125,0.45961306899189946,0.17014906139075756,0.32696948932670056
1790963457623624200,3.613624267578125,-0.019251301502063868,0.09735270524919032,0.03810717394575477
1790963457633704200,3.6237041015625,-0.4401216751236468,0.04151800530254841,-0.11394516280554234
1790963457643784200,3.6337841796875,-0.7808248715747147,0.001426233410835266,-0.38304830022752284
1790963457653864200,3.6438642578125,-0.6482195780932903,-0.029361119040846824,-0.6091204705007374
1790963457663944200,3.653944091796875,-0.03213051068894565,-0.019428338569402695,-0.6596630553886293
1790963457674024200,3.664024169921875,0.803397864845395,-0.06770107882916927,-0.5275137620463967
1790963457684104200,3.674104248046875,0.9543576571196317,-0.09137713797092437,-0.09755407304018736
1790963457694184200,3.68418408203125,-0.32883396802432835,-0.20278408753573893,0.05548311002999544
1790963457704264200,3.69426416015625,-1.3147300151586532,0.16020049882829188,-0.23391849985942242
1790963457714344200,3.70434423828125,-0.5990852891007438,0.1486234582811594,-0.3289141936536878
1790963457724424200,3.714424072265625,0.004420117997191846,-0.06096271048486233,-0.03245813520811498
1790963457734504200,3.724504150390625,-0.09578691723719239,0.12245090614855289,0.16587788687758145
1790963457744584200,3.734584228515625,-0.6868494607388973,0.17265081507861613,-0.12319332201369106
1790963457754664200,3.744664306640625,-1.0092302340358494,-0.07705342906415462,-0.892017155475542
1790963457764744200,3.754744140625,0.07225793841592967,-0.12304361134469509,-0.7753996316555887
1790963457774824200,3.76482421875,2.084101691761613,-0.050478141349554057,-0.22210100161992014
1790963457784904200,3.774904296875,3.1193875735521313,-0.031017654076218603,0.0023844839837402106
1790963457794984200,3.784984130859375,2.6664818932443857,0.27655601071119307,0.39330446743443603
1790963457805064700,3.795064697265625,1.4323773204177617,0.2376198385953903,0.13378602769859135
1790963457815144700,3.805144775390625,-0.245436649826169,0.1489665726304054,-0.34336627818048
1790963457825225000,3.815224853515625,-1.8335352778315543,-0.11127367857396601,-0.06956979531049728
1790963457835304700,3.8253046875,-2.2556635425597427,-0.19596505517065524,0.6541379352916031
1790963457845385000,3.835385009765625,-1.1865684032130985,0.2338075868308544,0.8481858317293226
1790963457855464700,3.845464599609375,-0.9727911394327878,0.3831815712183714,0.9885118556559085
1790963457865544700,3.855544677734375,-0.7990665576428174,0.41901393209993837,0.982237013170123
1790963457875625000,3.865625,-0.48686289496719837,0.2029980225473642,0.6917685047015547
1790963457885704700,3.87570458984375,-0.4858002341717481,-0.14912205545306204,0.8564914493903517
1790963457895785000,3.885784912109375,-0.3785791189242154,-0.5872703116118908,1.5662912853449582
1790963457905864700,3.89586474609375,0.032142274191975594,0.33217794468998907,2.02521958694309
1790963457915944700,3.90594482421875,0.42040808987207706,1.050326799055934,2.108735636150092
1790963457926024700,3.916024658203125,0.8558031018000095,0.7315677233874798,0.9505709781877696
1790963457936104700,3.926104736328125,1.126573587912321,-0.15161854844391345,-0.43197555887326594
1790963457946185000,3.93618505859375,1.1507370652448385,-1.097604683059454,-2.0365717326931656
1790963457956264700,3.9462646484375,1.1492588093858211,-2.3504309074908494,-4.412456376522779
1790963457966345000,3.956344970703125,0.03709602414183318,-1.8200509423583744,-3.8250820200145244
1790963457976424700,3.9664248046875,-0.018909356196597216,0.7231324879974126,0.6006151655491441
1790963457986504700,3.976504638671875,0.6688643067151308,0.6772901897549629,1.2519184619367123
1790963457996585000,3.9865849609375,0.8893663487058132,0.3319377061933279,-0.09943623352497816
1790963458006662000,3.996661865234375,0.911941241672635,0.3325064459919929,-0.047229697480238975
1790963458016741600,4.00674169921875,0.869739930281043,-0.4078700222730636,-0.13182955986857414
1790963458026822000,4.01682177734375,-0.34796880353987214,-0.08652911341786385,-1.8936464860536157
1790963458036901600,4.026901611328125,-1.2764151898115872,0.7138619708269834,-2.1308464918017385
1790963458046982000,4.03698193359375,-0.6409627388328314,-0.8457061437427997,-2.042599176289141
1790963458057061600,4.0470615234375,0.42646066790930925,-0.9847983880907296,-0.9662649525344371
1790963458067142000,4.057141845703125,0.032925533524155615,-0.5483563513278961,-0.7573595325741916
1790963458077222000,4.067221923828125,-0.4682471148896962,-0.2197515889495611,-0.923786358571425
1790963458087301600,4.077301513671875,-0.24256029067225754,0.06778875711262226,-0.5349584885617718
1790963458097382000,4.0873818359375,0.0319802885632962,0.20942250263690948,-0.3955751523127779
1790963458107461600,4.097461669921875,0.14037870396189392,0.1331207687228918,-0.15744195736777036
1790963458117542000,4.1075419921875,0.3681581896096468,-0.02733575069308281,0.43390579628348347
1790963458127622000,4.117621826171875,0.4534228360496461,-0.19610300233662128,0.46170719172693786
1790963458137701600,4.12770166015625,0.3720995476465672,-0.01192132394015789,-0.24469985998421906
1790963458147782000,4.137781982421875,0.27201537160687145,0.06713643068373203,-0.4484444265825674
1790963458157861600,4.147861572265625,0.407099037900567,-0.13770225129425526,-0.273687761798501
1790963458167942000,4.15794189453125,0.8377537234336138,-0.11724690776467322,-0.4292586280647665
1790963458178022000,4.16802197265625,0.727898679485917,0.09038929597735404,-0.4761032717501744
1790963458188102000,4.178101806640625,0.5406476766467094,0.21481296350359916,-0.22224037355799225
1790963458198182000,4.188181884765625,0.45436640051007265,0.20158815574944017,-0.3873589299682528
1790963458208261600,4.19826171875,0.12317388666085897,-0.057230538219213485,-0.2195768169045448
1790963458218342000,4.208341796875,0.2798806981544941,-0.682586542597413,-0.2656905159668997
1790963458228421600,4.218421630859375,0.8556475459121167,-1.0323071582406758,-0.8699629253819584
1790963458238502000,4.228501953125,1.1747042893528938,-0.8923299477517604,-0.9230077023491263
1790963458248582000,4.238581787109375,1.1111186830185353,-0.6366016210138797,-0.5494526951972395
1790963458258661600,4.24866162109375,0.7832095747541635,-0.015197569131851196,-0.5036527017265557
1790963458268742000,4.258741943359375,0.05242569522075355,0.9190665635079145,-0.05528691160446032
1790963458278821600,4.268821533203125,-0.4057728307981044,1.0411503899097443,0.43482313032411035
1790963458288902000,4.27890185546875,-0.008107391675189137,0.6060480773180723,0.35370237875580784
1790963458298982000,4.28898193359375,0.06348894102685153,0.19685645105242727,0.2552031703526154
1790963458309062000,4.299061767578125,-0.34015549944043155,-0.09588204817473887,0.4219381124509498
1790963458319142000,4.309141845703125,-0.804427865480259,-0.36071021169126033,0.8712338221006095
1790963458329221600,4.3192216796875,-0.904781433045864,-0.557647911286354,0.7699475767947733
1790963458339302000,4.329302001953125,-0.057314124849438666,-0.9577017068505287,0.3693531715478748
1790963458349381600,4.339381591796875,0.619883125925064,-1.11961894646883,-0.32000801628362385
1790963458359462000,4.3494619140625,0.9560492634683847,-1.0913128894388675,-0.942972558948025
1790963458369542000,4.3595419921875,1.2398475003927945,-0.946697497755289,-0.8641028742421418
1790963458379621600,4.36962158203125,1.165173002354428,-0.5899462528228759,-0.5756735799835995
1790963458389703700,4.37970361328125,0.44023390332646667,0.42237025679051876,-0.2307642736122012
1790963458399784000,4.389783935546875,0.6778268539149314,0.5410708704948425,-0.11631650417991914
1790963458409863700,4.39986376953125,1.2741583507955074,0.1718944437533617,-0.5529753528980538
1790963458419944000,4.40994384765625,1.4859569349139927,-0.10288228232562541,-0.7137891978517175
1790963458430024000,4.42002392578125,0.8269698790907859,-0.07255261051356791,-1.0463023658454418
1790963458440103700,4.430103759765625,-0.06334284708704799,-0.4926368021935224,-0.4522785248527303
1790963458450184000,4.440183837890625,-0.8718775268316269,-1.2313491366386413,0.6047321724139154
1790963458460263700,4.450263671875,-1.1468746176630258,-1.4551029469668864,1.3609512297160922
1790963458470344000,4.460343994140625,-0.825660550057888,-1.2481968110650776,1.5072446376144886
1790963458480423700,4.470423583984375,-0.2251940722644329,-0.9262059138685464,1.6343655814006923
1790963458490503700,4.480503662109375,-0.11196750605702399,-0.1705833611547947,1.3017606434702873
1790963458500584000,4.490583984375,-0.4146516452372074,0.5236860204517841,0.7105004585046321
1790963458510663700,4.50066357421875,-0.9065268154084682,1.0887637894779443,0.5215322764839977
1790963458520744000,4.510743896484375,-0.8359469662725925,0.8600783679664135,0.5659074978485703
1790963458530823700,4.52082373046875,-0.665242024564743,0.4875736735850572,0.8480621322844177
1790963458540903700,4.530903564453125,-0.913569062070176,0.6040571957617997,1.3211584407709538
1790963458550984000,4.54098388671875,-0.97163086348176,0.5300953029721975,1.5221271494477986
1790963458561063700,4.551063720703125,-0.6788368346750736,0.6726543466478586,1.0190597002632915
1790963458571144000,4.56114404296875,-0.5676701236069203,0.16650749001801013,0.1971298611663282
1790963458581223700,4.5712236328125,0.033576124653685833,-0.44309214230179783,-0.5513567752528935
1790963458591304000,4.581303955078125,0.459846841215156,-0.8423743689715861,-0.7250552727535367
1790963458601383700,4.5913837890625,0.10676292315125464,0.06247428409159183,-0.6670976623687893
1790963458611463700,4.601463623046875,-0.3113490551402792,0.23214403753280638,-0.23227361872922628
1790963458621544000,4.6115439453125,-0.6637339580893516,0.3206003196209669,0.44806488921307025
1790963458631623700,4.621623779296875,-1.3003484385848045,0.003235328659415245,0.9634225687153637
1790963458641704000,4.631703857421875,-1.232623394358158,-0.38187458027303217,0.8293816164076327
1790963458651783700,4.64178369140625,-0.4639116429686546,-1.1675807210832834,0.6759916743770241
1790963458661863700,4.65186376953125,0.51834115229249,-1.6061679531812667,-0.32773791641592975
1790963458671944000,4.66194384765625,1.0182640198409556,-0.6366513053745031,-0.009987378469202666
1790963458682023700,4.672023681640625,1.0933329970896244,0.32084698785841465,-1.3914191409550607
1790963458692104000,4.68210400390625,1.186723812970519,1.0565881975382565,-2.0788807422429323
1790963458702183700,4.69218359375,-0.07320435242056846,1.3878203858107327,-1.4466840781897305
1790963458712264000,4.702263916015625,-0.7836246583610773,-0.011430910074710846,-0.33301578375361857
1790963458722343700,4.71234375,0.42918402845859527,0.2410094810336828,-2.399142039167881
1790963458732423700,4.722423583984375,1.838349400115013,-0.09936112246215342,-2.5694533053830266
1790963458742504000,4.73250390625,2.200723745626211,-0.657690586271882,-1.3295340549282728
1790963458752583700,4.742583740234375,0.9865011003553866,0.4186187953025102,-0.8933471619702875
1790963458762664000,4.752663818359375,-0.9314835620105266,0.9902560689747333,0.045311004377342756
1790963458772743700,4.76274365234375,-1.5730752463966606,0.8548422208786011,0.9521677458599209
1790963458782823700,4.77282373046875,-1.3729331978023052,0.15590893911421297,0.41976047615092243
1790963458792904000,4.782904052734375,-1.6653963872194288,-0.6998842988789081,1.1074702435135841
1790963458802983200,4.792983154296875,-0.5016828994909301,-1.9783383010417221,1.256331309942901
1790963458813063200,4.803063232421875,1.7318682165145873,-2.2804823419958353,0.12248765796236694
1790963458823143200,4.81314306640625,2.1223925517112017,-0.7347445998579263,0.21116806766260415
1790963458833223400,4.823223388671875,1.0962924314171074,1.0350684396475553,0.3938340442664921
1790963458843303200,4.83330322265625,-0.09328096229825168,2.609724817755818,-0.2739457551475614
1790963458853383400,4.843383544921875,-1.3358885385215282,3.958016326254606,0.22597766039017586
1790963458863463200,4.853463134765625,-1.2783505417883396,2.0098300023704767,-0.12993251234190537
1790963458873543200,4.863543212890625,-0.4643085698643699,-0.37509529539644715,-0.4353699505519122
1790963458883623400,4.87362353515625,-0.6906091055333614,-2.0742583431392907,1.2923551017433403
1790963458893703200,4.883703125,-0.28701895253658294,-2.1291157224863766,1.3833546385735274
1790963458903783400,4.893783447265625,0.13419811563082037,-0.7699141129165887,0.22863913468439132
1790963458913863200,4.90386328125,-0.037426936596632,1.1312187833696603,-0.06764111053654924
1790963458923943200,4.913943115234375,0.6005010376501828,1.735468286833167,-0.2955660873359069
1790963458934023200,4.924023193359375,1.8664064508199691,2.0274118362903595,-1.4595830149903892
1790963458944103200,4.934103271484375,2.5739795506358143,2.3910855739623305,-1.8267141996398568
1790963458954183400,4.944183349609375,2.3436972153216598,1.5473159512400627,-1.2163852301321922
1790963458964263200,4.95426318359375,0.9146903211850672,0.10756956335902214,0.13603879332775248
1790963458974344200,4.96434423828125,-0.4540653717368841,-0.14122107307016848,1.1829924444224684
1790963458984423200,4.974423095703125,-1.2786001326352356,-0.03814765208661556,1.0019712028183043
1790963458994504200,4.984504150390625,-0.8568372671533375,0.42866380397677417,0.7524600700948387
1790963459004584200,4.994584228515625,-0.16872984224259852,1.190181259948015,0.725268550178036
1790963459014664200,5.004664306640625,0.5169711060483009,1.3173334756553172,0.28965321003030986
1790963459024744200,5.014744140625,1.9793542000859974,1.81951844291687,-0.7888753454308957
1790963459034824200,5.02482421875,1.9660842380158603,1.5266560250490904,-1.2197914583791047
1790963459044904200,5.034904296875,1.5627210256427526,1.8720237061798572,0.09907123613748699
1790963459054984400,5.044984375,1.655176021978259,1.9703011250585316,-0.08390384294819087
1790963459065064200,5.055064208984375,1.21679753726013,1.4407768999725579,-0.4277348525635898
1790963459075144200,5.065144287109375,0.25759828532822426,0.6438058533042669,0.6018176366740837
1790963459085224200,5.07522412109375,-0.40784200175497676,0.35369945614635945,-2.16432089138031
1790963459095304200,5.08530419921875,-1.2476117046535014,-0.3254723095715046,-3.791365336112678
1790963459105384400,5.095384521484375,-0.48324353542625903,-1.2095581605911254,-3.9181586553797123
1790963459115464200,5.105464111328125,0.8092875074058771,-2.455011225906014,-4.2743245016396045
1790963459125544200,5.115544189453125,1.2245920635938643,-3.8568034384459255,-3.2058807388737796
1790963459135624200,5.125624267578125,1.093233043846488,-3.664730714538693,-0.7748701278887689
1790963459145704200,5.1357041015625,0.7823603375136852,-2.0633412278056142,1.7846248241901397
1790963459155784400,5.145784423828125,0.1809872662693262,-0.6692991910010576,3.6045039171129463
1790963459165864200,5.1558642578125,-0.4250041124254465,-0.045346039158105846,4.233510845214128
1790963459175944400,5.1659443359375,-1.0581120461046696,-0.3316442762047052,3.6824721229344606
1790963459186024200,5.176024169921875,-1.7307015108227728,-0.1781295387506485,1.955631963714957
1790963459196104200,5.186104248046875,-2.0275667345911264,0.10191372955441474,-0.28697507686223833
1790963459206184200,5.19618408203125,-1.9896973149240016,-0.13202595922350882,-1.369289288341999
1790963459216264200,5.20626416015625,-1.3369067756533621,-0.3188964383125305,-0.7016555463351309
1790963459226344400,5.216344482421875,-0.22285949183702466,-0.0016565350353717804,0.29949531654361633
1790963459236424200,5.226424072265625,0.5783282957434653,0.019641689059138295,0.21960746777113527
1790963459246504200,5.236504150390625,1.05757019431293,-0.049987727484107014,-0.03482566805705428
1790963459256584200,5.246584228515625,0.9143833741277456,0.08606675660312176,-0.1790402238547802
1790963459266664200,5.256664306640625,0.20928046381771565,0.091806761559844,-0.2224633686589077
1790963459276744400,5.266744384765625,-0.23734335974156856,0.040108723026514054,-0.06414375167377293
1790963459286824200,5.27682421875,-0.2605827810317278,-0.06679974607527256,-0.02508143242765218
1790963459296904400,5.286904541015625,0.015296937853097915,-0.1279097560763359,-0.054572169197537004
1790963459306984200,5.296984130859375,0.25725451339185235,-0.05525777684152126,-0.06595295652020722
1790963459317064200,5.307064208984375,0.26109248411953445,0.075890815025568,-0.013817220689356327
1790963459327144200,5.317144287109375,0.11476561234295367,0.08730711205303668,0.05723912338446825
1790963459337224200,5.32722412109375,0.12706336838006974,0.032440964877605435,0.04008651119470596
1790963459347304400,5.337304443359375,0.19556348863244055,-0.029738720181584355,-0.0067285045374184844
1790963459357384200,5.34738427734375,0.1752279720902443,-0.08802022875845432,-0.03392831735853106
1790963459367464200,5.357464111328125,0.1287415307253599,-0.05638356600105762,-0.041109899425692854
1790963459377544200,5.367544189453125,0.0601794511526823,-0.006008885025978088,-0.03442812010683119
1790963459387624200,5.377624267578125,0.21891630716919896,0.09168401196300983,0.26909257949534804
1790963459397704400,5.387704345703125,0.5047860896706581,-0.03190846543610096,0.7668029220934957
1790963459407784200,5.3977841796875,0.1670838286012411,-0.026631401816010473,0.4539338177790865
1790963459417864400,5.407864501953125,-0.23909926349818705,0.09449030155539512,0.13435034705046564
1790963459427944200,5.417944091796875,-0.030262451794743538,0.16547522436082363,-0.06098631055615842
1790963459438024200,5.428024169921875,0.17782032667100428,-0.1370937640070915,0.24170740016996858
1790963459448104200,5.438104248046875,0.042533319824934,0.0016764087796211243,0.49190293496102094
1790963459458184200,5.44818408203125,0.030274137665960005,-0.17014964591264722,0.2380897211294621
1790963459468264400,5.458264404296875,-0.11059563318192958,-0.14805062682926654,-0.008508665952458977
1790963459478344200,5.46834423828125,0.02740530879795551,0.07923895640969277,0.01753982140906155
1790963459488424200,5.478424072265625,0.47879824645519253,0.10119126049876212,0.023492811529338357
1790963459498504200,5.488504150390625,0.5653133313477039,0.10065759201347828,-0.0796415823938325
1790963459508584200,5.498584228515625,0.25687983486056326,0.013299042034149168,-0.16570296870209275
1790963459518664400,5.50866455078125,0.0025187048226594923,-0.1521563085824251,-0.3675145579438656
1790963459528744200,5.518744140625,-0.18189444424211978,-0.18897592693567275,-0.4790977043258026
1790963459538824200,5.52882421875,-0.27884382938742636,-0.11661445508003235,-0.4685142779259011
1790963459548904200,5.538904296875,-0.2733873175472021,0.027279636591672894,-0.3884071603795513
1790963459558984200,5.548984130859375,-0.09289514131844043,0.19300678988695144,-0.49188065006397663
1790963459569065200,5.559065185546875,0.2264922953814268,0.1513286255866289,-0.5718178178709
1790963459579144200,5.569144287109375,0.41023792044818397,-0.05658288796544075,-0.6140493052050471
1790963459589225200,5.57922509765625,0.3003758622378111,-0.36364100444614883,-0.822316500326991
1790963459599305200,5.58930517578125,0.15200316384732723,-0.28933658182919025,-1.018352136515826
1790963459609385200,5.59938525390625,0.08474807521998882,-0.27037761433720586,-1.326871703851223
1790963459619465500,5.609465576171875,0.0011959272197214887,-0.04368891960084438,-1.331157418346405
1790963459629545200,5.619545166015625,-0.045342536593344994,0.3159083624124527,-0.6360150532975792
1790963459639625200,5.629625244140625,0.05742226139903068,0.5096101488262414,0.2635723182365298
1790963459649705200,5.639705322265625,0.05768530081596691,0.40476270390748975,0.7316129507686943
1790963459659785200,5.64978515625,-0.07377543030679226,0.09378829076588154,0.5028790139403194
1790963459669865200,5.659865234375,-0.14724983184039592,-0.22117723783850668,-0.07958608934693039
1790963459679945200,5.6699453125,-0.19446049582660196,-0.4524439080148935,-0.5595589325394481
1790963459690025200,5.680025146484375,-0.12551087824106216,-0.4822895957022905,-0.7108906999312341
1790963459700105200,5.690105224609375,-0.09736088855564594,-0.35164544622600075,-0.547275351158157
1790963459710185200,5.700185302734375,0.20804770715236662,-0.08807575833797454,-0.44934557667337355
1790963459720265200,5.71026513671875,0.6311825185745954,0.24938567971289155,-0.3090710637383163
1790963459730345200,5.72034521484375,0.905542480546236,0.45350949141979213,-0.3282545607011765
1790963459740425500,5.730425537109375,0.8741898954272269,0.316094240373373,-0.14007380273118614
1790963459750505200,5.740505126953125,0.6364753642857074,0.07605565019845963,0.021795798353105782
1790963459760585200,5.750585205078125,0.2667132466107607,-0.1006646062761545,0.1037024396020919
1790963459770665200,5.760665283203125,-0.18370938470959663,-0.2838952675580978,0.28629487604573367
1790963459780745200,5.7707451171875,-0.4129997863769531,-0.40415772375166414,0.2512086573563516
1790963459790825500,5.780825439453125,-0.32954408905506133,-0.40678807225525376,-0.05265431634485721
1790963459800905200,5.7909052734375,-0.24016776951253413,-0.5216553914070129,-0.07379004335403443
1790963459810985700,5.80098583984375,0.010073061158391646,-0.11191197647750377,0.02334032438136637
1790963459821066000,5.81106591796875,0.13386369604468346,0.4334463620781898,0.42956272557787595
1790963459831145700,5.821145751953125,0.01597673224422615,0.41236441108286376,0.9766874162189662
1790963459841226000,5.83122607421875,0.13971885181367397,0.1736409951597452,1.407944889950752
1790963459851306000,5.841305908203125,0.28530571887791156,-0.2336801610589027,1.539319984050095
1790963459861385700,5.8513857421875,0.6762813049733638,0.05660977597236633,1.2076363256830722
1790963459871466000,5.861466064453125,0.4172451688617468,0.43086569793522356,0.8535035196207463
1790963459881545700,5.871545654296875,0.12260054375231265,0.33491818330883977,0.2765987538743764
1790963459891626000,5.8816259765625,0.19803776979148388,0.03933715413212776,-0.4349233758281916
1790963459901706000,5.8917060546875,0.4859411039471626,-0.32942543111145495,-0.605924962395057
1790963459911785700,5.90178564453125,0.42366847990751266,-0.6504869385033846,0.12405249612629413
1790963459921866000,5.911865966796875,0.30044191321134567,-0.9612626142024994,1.4400205286473036
1790963459931945700,5.92194580078125,0.440348396551609,-0.4283236122369766,1.7165069812536238
1790963459942026000,5.93202587890625,0.48992637419104573,1.4635235693097113,0.6143436119765043
1790963459952105700,5.942105712890625,0.1940636054635048,0.3942500777214765,0.665059726800397
1790963459962186000,5.95218603515625,-0.43948914937376976,0.035063130074739456,-1.2450792635664343
1790963459972266000,5.962265869140625,-0.7836275809705257,0.6260480782955885,-2.105718480286002
1790963459982345700,5.972345703125,-0.15556699380874633,-0.24772622206807135,0.14032142081670462
1790963459992426000,5.982426025390625,0.40858898419737816,-0.3558212706059217,0.629101912908256
1790963460002505700,5.992505615234375,0.5789923126101494,0.01918108581006527,0.28967816180847583
1790963460012586000,6.0025859375,0.43817865129709244,0.09659750296771526,0.30661402597501874
1790963460022666000,6.012666015625,0.06526771420240401,1.1282868215709925,-0.04717566573806107
1790963460032746800,6.022746826171875,-0.9009960692882537,1.328654495614767,-0.4977598442956805
1790963460042827000,6.032826904296875,-0.5285562568366527,0.47590135596990585,-0.8645612855341285
1790963460052907000,6.042906982421875,0.6047767422080039,0.013877134183049202,-1.0723946923486887
1790963460062986800,6.05298681640625,0.2566285087143071,-0.5670733267575502,-0.8088342106804252
1790963460073067000,6.06306689453125,-0.10749591360092163,-0.42818098889589307,-0.5181562972448766
1790963460083146800,6.073146728515625,-0.04813187048435211,-0.08693477160930634,-0.6751556619442999
1790963460093227000,6.08322705078125,-0.22129996916903183,0.4678548276364803,-0.5427017596323043
1790963460103306800,6.093306640625,-0.02125907939421013,0.8591793733000754,-0.127429790539667
1790963460113386800,6.10338671875,0.03355387628925964,0.7242179451465606,0.004743249004334211
1790963460123467000,6.113467041015625,0.1450327403128147,0.5647603736400604,0.08980835428424179
1790963460133546800,6.123546630859375,0.207698144796025,0.1369283443123102,0.015565817922353743
1790963460143627000,6.133626953125,0.11521978585124015,-0.0034779052436351775,-0.21711963301077483
1790963460153706800,6.143706787109375,0.1299731000806205,0.09466332003474234,-0.29146584894284605
1790963460163787000,6.153787109375,0.07139584169387816,0.21508418166041374,-0.18284809170514343
1790963460173867000,6.163866943359375,0.07065815680278464,0.33691374104022975,-0.036477161591127516
1790963460183946800,6.17394677734375,0.25328268715143204,0.3273766818881035,-0.0070976301107555624
1790963460194027000,6.184027099609375,0.3964332669794559,0.17327976063191888,-0.10775843699462712
1790963460204106800,6.194106689453125,0.5012099847495556,-0.03466507066786289,-0.2748223918516189
1790963460214187000,6.20418701171875,0.5703402195990085,-0.22715163607299327,-0.3953521937444806
1790963460224266800,6.214266845703125,0.6350514689624309,-0.37507483713030815,-0.5174927187696099
1790963460234346800,6.2243466796875,0.628607699650526,-0.3573047871619463,-0.548252014170587
1790963460244427000,6.234427001953125,0.4338122727811336,-0.27101825032830235,-0.5733524800922721
1790963460254506800,6.2445068359375,0.16055066397283224,-0.45319034246802326,-0.4912986123923212
1790963460264587000,6.2545869140625,-0.03948558615949005,-0.5171276848495007,-0.3759907098662108
1790963460274666800,6.264666748046875,-0.08193475309861824,-0.28086159895062446,-0.22740531857311724
1790963460284747000,6.2747470703125,-0.014124405208695678,-0.19381226105093954,-0.2842125898789614
1790963460294827000,6.284826904296875,0.06690088662849739,-0.2050730752557516,-0.4524450039934367
1790963460304906800,6.29490673828125,0.11591069072484969,-0.10988953073918818,-0.23616167567633092
1790963460314987000,6.304987060546875,0.11211012939810752,-0.12784312058091163,-0.06274798646643757
1790963460325066800,6.315066650390625,0.19496028030859305,0.0200075997620821,-0.24766228998638687
1790963460335147000,6.32514697265625,0.27129414466023444,0.033004443979263304,-0.4396163559500128
1790963460345226800,6.335226806640625,0.16256836047079412,0.014687281522154807,-0.28796690091118216
1790963460355306800,6.345306640625,0.07347093093488365,-0.004077624702453613,-0.19329868550561366
1790963460365387000,6.355386962890625,-0.031423860256932674,0.011706804406642913,-0.25175964230261744
1790963460375466800,6.365466796875,-0.030474633240699767,0.016736615267395973,-0.27615554015152155
1790963460385547000,6.375547119140625,-0.03033431145455688,-0.015880875220894812,-0.15568550562188027
1790963460395626800,6.385626708984375,-0.029212047692667692,-0.00527940170764923,0.04639014138355851
1790963460405707000,6.39570703125,0.05396890607476234,0.01124678567945957,0.02780468337908387
1790963460415788000,6.4057880859375,0.08210775331165641,-0.0043909284353256224,-0.12105667531117796
1790963460425867800,6.41586767578125,0.01186813244819641,-0.01700023463964462,-0.14286715977676212
1790963460435947800,6.42594775390625,-0.07869416374219582,-0.026610359027981756,-0.06733619103953242
1790963460446027800,6.43602783203125,-0.10174418167378753,-0.016335633251070975,0.03566701425202191
1790963460456107800,6.446107666015625,-0.058473195224069054,0.01981879919171333,0.03323321123383939
1790963460466188000,6.45618798828125,-0.024759141670726237,-0.010465864434838294,-0.023879472759366034
1790963460476267800,6.466267822265625,-0.06052254723561927,0.009228431594371795,-0.07186703940220177
1790963460486348000,6.47634814453125,-0.09272385813845321,-0.009700140759348868,-0.04830766544267535
1790963460496427800,6.486427734375,-0.047921406071446834,0.013710545444488525,-0.006305018428340554
1790963460506507800,6.4965078125,0.01134089370369911,0.007354454416036605,-0.06820435217618942
1790963460516588000,6.506588134765625,0.008563282216526568,0.0029641105026006697,-0.07892609106823802
1790963460526667800,6.516667724609375,0.0020949447189457715,0.025792028382420538,-0.10850494451299308
1790963460536748000,6.526748046875,-0.0017886187161318956,0.060599137869477265,-0.11878208144269883
1790963460546827800,6.536827880859375,-0.01947157492293045,0.07024784070253372,-0.06106982412114739
1790963460556907800,6.54690771484375,0.1396515952637419,-0.012861819660663604,-0.028237229577451943
1790963460566988000,6.556988037109375,0.1497650295317173,0.037113048341870306,-0.14164704339727757
1790963460577067800,6.56706787109375,-0.05091300736917183,0.016736615267395973,-0.23143851961195466
1790963460587148000,6.57714794921875,0.05775896427379921,-0.04649871632456779,-0.11771554818972944
1790963460597227800,6.587227783203125,0.11160630806181579,0.07778758855760097,-0.1266771455414593
1790963460607308000,6.59730810546875,0.11301032964084297,0.06601765578687191,-0.0055779462628066535
1790963460617387800,6.6073876953125,0.24658760995957998,0.0343640418946743,-0.13720226588286458
1790963460627467800,6.6174677734375,0.1250666598712094,-0.022049919244647026,-0.28616511218622326
1790963460637548000,6.627548095703125,0.09387306470619514,-0.04644494031071662,-0.19616101613417267
1790963460647627800,6.637627685546875,0.10134206714630126,-0.009399111986160278,-0.41317908846661444
1790963460657708000,6.6477080078125,0.002065736890770495,0.016820201897621154,-0.15548917933218181
1790963460667787800,6.657787841796875,0.08950202828142792,0.057037061473727224,-0.13875212567336856
1790963460677867800,6.66786767578125,0.23576460265014318,0.02244622508585453,-0.1753908345017582
1790963460687948000,6.677947998046875,0.24535308146225288,0.08215162898600101,-0.22415150440894066
1790963460698027800,6.68802783203125,0.1280804364681244,0.03161328188180923,-0.31380686008855696
1790963460708108000,6.69810791015625,-0.005022212076187134,-0.022321721923351287,-0.3594448679305613
1790963460718187800,6.708187744140625,0.03596563187241554,-0.04119885635077953,-0.31962299902141095
1790963460728268000,6.71826806640625,0.09541852231621742,-0.07127367661893368,-0.22629911089688537
1790963460738349000,6.72834912109375,0.06749244104716927,0.021525018587708472,-0.2285377566691488
1790963460748428800,6.7384287109375,0.14028059561597184,0.024040216279029844,-0.23120843718312678
1790963460758508800,6.7485087890625,0.23230655288444832,0.10828326458632945,-0.32930326603651044
1790963460768588800,6.7585888671875,0.24406948965881017,0.045291094100475306,-0.35072606635875997
1790963460778668800,6.768668701171875,0.1505693499182351,0.05389350275099277,-0.4136464867826551
1790963460788749000,6.7787490234375,0.12194646375775336,-0.049093993514776224,-0.37264863289669153
1790963460798828800,6.788828857421875,0.07072716691838576,-0.05537409669756889,-0.47080330217853184
1790963460808908800,6.79890869140625,0.44858197188973425,0.20752865171432494,-0.42626587598957116
1790963460818988800,6.80898876953125,0.49757192050814625,-0.034869068807363506,-0.4727998828232288
1790963460829068500,6.819068603515625,0.028877719438076016,-0.0077729720890522,-0.4729942363515496
1790963460839148800,6.829148681640625,0.036484687310457224,0.31909400671124455,-0.36007257137484844
1790963460849228800,6.839228759765625,0.4583224446594715,-0.11915069555938243,-0.16274083096086978
1790963460859308800,6.849308837890625,0.33085108000040053,0.05691138926744461,-0.46737720018737017
1790963460869388800,6.859388916015625,0.28703181201815603,0.18596914633512496,0.05065379017740488
1790963460879468800,6.86946875,0.24713351687192917,-0.10702829608917236,-0.36474903875328596
1790963460889548800,6.879548828125,0.20772035662783309,0.12924480407238007,0.062440162626281374
1790963460899628500,6.889628662109375,0.41905075697898864,-0.10458557911217212,-0.30147337515093386
1790963460909708800,6.899708740234375,0.4750491230547428,0.05945289044380188,-0.07345547763742506
1790963460919788800,6.909788818359375,0.2245920147180557,-0.07027122157812118,0.16415303584635257
1790963460929868800,6.919868896484375,0.2641805132627487,0.15880582959949968,0.23252375756539403
1790963460939948800,6.92994873046875,0.3691477851688862,0.2817623471826315,1.0010243504222482
1790963460950028500,6.940028564453125,0.22086861028075216,0.136589321616292,1.1835289624519645
1790963460960108800,6.95010888671875,-0.12269001213405281,0.0665758741915226,0.5050095962282269
1790963460970188800,6.960188720703125,-0.33811789266560227,-0.11824877828359603,0.08331533900313079
1790963460980268800,6.970268798828125,0.11794131976962088,-0.1513192732363939,0.24539186083637177
1790963460990348800,6.980348876953125,0.5866717611968517,-0.5757815338701009,0.39708712777830657
1790963461000428800,6.9904287109375,0.5739736076653004,0.19412439574003218,0.7477152867205441
1790963461010508800,7.0005087890625,0.2848714556464925,-0.03484861054122448,0.9530980124473571
1790963461020588500,7.010588623046875,-0.033235878114961086,0.1970166100502014,0.8291356057573109
1790963461030668800,7.020668701171875,-0.21611180767510085,0.024774375772476195,0.7194979308873415
1790963461040749800,7.030749755859375,-0.3939151466786861,-0.13988485603034495,0.7727308508377522
1790963461050829600,7.04082958984375,-0.3176058139801025,-0.18558745354115963,1.103880767654255
1790963461060909800,7.050909912109375,-0.2577893509209156,-0.2533048989832401,1.3417059926286339
1790963461070989800,7.06098974609375,-0.44343701021671295,-0.10790040274858474,1.3963961987152695
1790963461081069800,7.07106982421875,-0.4556371510982513,-0.05631634598374367,1.6946144445277749
1790963461091149800,7.08114990234375,-0.433816912423633,0.0374006331115961,2.077040667334199
1790963461101229600,7.0912294921875,-0.5892085861980915,-0.059494976019859314,1.755193416392058
1790963461111309800,7.101309814453125,-0.7620341733217239,-0.31928572989106174,0.8786886681511997
1790963461121389800,7.111389892578125,-0.35497429838776584,-0.05810030679106712,1.157639903435856
1790963461131469800,7.1214697265625,0.012606986383069306,-0.1545925958186388,1.9246042266361414
1790963461141549800,7.1315498046875,-0.5610778492024168,-0.26091537398695946,1.7824708610266446
1790963461151629600,7.141629638671875,-1.0219441696584224,-0.2318172897964716,1.476752468717098
1790963461161709800,7.151709716796875,-1.0116063155174255,-0.2176075626581907,0.723827119198069
1790963461171789600,7.16178955078125,-0.5518389327466487,-0.0877069250255823,0.5863884872760623
1790963461181869800,7.171869873046875,0.1510591609954834,-0.26079846960902214,1.2048062168236822
1790963461191949800,7.18194970703125,0.06664718586206436,-0.08313304123878479,1.3495765798732637
1790963461202029800,7.19202978515625,-0.24409279746916143,-0.13421265561282633,0.740117378937453
1790963461212109800,7.20210986328125,-0.349567470908165,-0.06995733332335949,0.17295666615739463
1790963461222189600,7.212189453125,-0.4511994609117508,-0.16722469837665557,0.21679368899203835
1790963461232269800,7.222269775390625,0.028576142675615847,-0.15291794060468672,0.9620079526770859
1790963461242349800,7.232349853515625,0.45449499532580373,-0.13959902482628822,0.7559632559102029
1790963461252429800,7.242429931640625,0.2210124209319241,-0.03370294763743877,0.3115454179625958
1790963461262509800,7.252509765625,-0.05779986253976822,-0.05894610996544361,-0.3891873875044286
1790963461272589600,7.262589599609375,-0.021717308023106306,0.07889350397288798,-0.8397917320672422
1790963461282669800,7.272669921875,0.2770832677219994,0.12257833192050456,-0.41965917120091617
1790963461292749600,7.28274951171875,0.44664720443487166,0.21733283737003803,-0.14634594180323182
1790963461302829800,7.292829833984375,0.564514874446392,0.12736556619703768,-0.5114306422516703
1790963461312909800,7.302909912109375,0.5417009850919247,0.006711480337381362,-0.9176927909366785
1790963461322990600,7.312990478515625,0.23427872974025085,-0.07836042000949382,-1.0886664665833115
1790963461333070800,7.32307080078125,0.20180850223554297,0.07040799970030784,-0.8956067044001073
1790963461343150800,7.33315087890625,0.6467606114566326,0.044411388656497,-0.7238852791260928
1790963461353230600,7.343230712890625,0.6848609172701835,0.08215162898600101,-1.1083813670091331
1790963461363310800,7.353310791015625,0.570824203723669,0.19668050996363162,-1.0555640421222894
1790963461373390600,7.363390625,0.6420259841501712,0.21721359490454195,-1.125391757716611
1790963461383470800,7.373470947265625,0.6983107659518718,0.20340777239203453,-1.2217018951103091
1790963461393550600,7.383550537109375,0.44847675794959063,0.050502106747031206,-1.1398939649954438
1790963461403630800,7.393630859375,0.21277296384228392,0.12719839293658733,-1.169871827695146
1790963461413710800,7.4037109375,0.46208092041015625,0.1324234341084957,-1.0899331255182623
1790963461423790600,7.41379052734375,0.7144681200265884,0.13605916026234627,-0.8691900413133203
1790963461433870800,7.423870849609375,0.4790881693124771,-0.04284077833890915,-0.7912099258583039
1790963461443950600,7.43395068359375,0.43440497797727584,0.10926935301423073,-0.8814384052507579
1790963461454030800,7.44403076171875,0.6562777968645096,0.04082417781949043,-1.0266882954455911
1790963461464110800,7.45411083984375,0.4575403543710708,0.08913374295830725,-1.4863723838470875
1790963461474190600,7.464190673828125,0.5960346328258515,0.12255027486979961,-1.0474448138788341
1790963461484270800,7.474270751953125,0.7254805124282836,0.11721242097318171,-0.8043447903066873
1790963461494350600,7.4843505859375,0.47091538425087925,0.06510813972651958,-0.9444331330198794
1790963461504430800,7.494430908203125,0.33838439811468124,0.07983809134662151,-0.8375997749809175
1790963461514510600,7.504510498046875,0.45619127784967417,0.08957973316013812,-1.0899667355269194
1790963461524590800,7.5145908203125,0.4898538934767246,0.07804010201394558,-1.4363143676057457
1790963461534670800,7.5246708984375,0.5177531232714653,0.2580021168887615,-1.3999711345925927
1790963461544750600,7.53475048828125,0.46354573226571083,0.1679857458770275,-1.2469317595653235
1790963461554830800,7.544830810546875,0.4815373160302639,0.050423780813813206,-0.9980302831728011
1790963461564910600,7.55491064453125,0.6102081196069717,-0.1666559585779905,-1.4375098610006272
1790963461574990800,7.564990966796875,0.585861613857746,-0.17948036883771418,-0.7201394436612725
1790963461585071900,7.57507177734375,0.17527592115150764,-0.15844576411545275,-0.6531197712250053
1790963461595151600,7.585151611328125,-0.06985738008022307,0.2407090367823839,-0.13039105149805544
1790963461605231900,7.59523193359375,0.23308513604151085,0.25326748958230016,0.19015848778374492
1790963461615312000,7.605311767578125,0.35009587869644165,0.19982406868636607,0.34888686823286114
1790963461625391600,7.6153916015625,-0.10629530563950539,-0.05818038628995418,-0.11671944982446729
1790963461635472000,7.625471923828125,-0.34687048690915107,-0.022922610425949095,0.17566322170235216
1790963461645551600,7.635551513671875,0.052124154990911484,-0.10403145236074923,0.35953729545436797
1790963461655632000,7.6456318359375,0.19522446593642234,0.08354980534613132,0.10705335746519266
1790963461665711600,7.655711669921875,0.2796247323657386,0.05356090979576111,0.2475632865913212
1790963461675791600,7.66579150390625,-0.019008670118916778,0.047018940806388854,-0.3568552898287773
1790963461685871900,7.675871826171875,-0.09675590839982032,0.09422785122692584,-0.48785417102687056
1790963461695951600,7.68595166015625,0.2808241895496845,0.018515315377712248,-0.15556458265595138
1790963461706031900,7.696031982421875,0.47010874404311176,-0.008074585384130478,0.10574242099709809
1790963461716111600,7.706111572265625,0.10409631602419539,-0.07581015100479126,0.11383571108169853
1790963461726191900,7.71619189453125,-0.19329203656911847,-0.001336217039823532,0.015609803194552659
1790963461736272000,7.72627197265625,-0.026751228803396223,-0.03434358362853527,-0.040278672765940424
1790963461746351600,7.7363515625,0.14224106376767157,0.04007949693202972,0.1535753085348755
1790963461756432000,7.746431884765625,0.19609775990592315,0.04185644347667694,0.30835758170671757
1790963461766511600,7.75651171875,0.1229799167250283,0.031003625550866123,0.4886905487857759
1790963461776592000,7.766591796875,-0.0348082785308361,-0.1061596965610981,0.24654417267665266
1790963461786671600,7.776671630859375,-0.03977553641623817,-0.013335866913199424,0.402524277330935
1790963461796751600,7.786751708984375,0.18592121554017066,0.08175707671046256,0.7817762540154158
1790963461806832000,7.79683203125,-0.061278936827182766,0.13696049301624297,0.4910501175239682
1790963461816912000,7.806911865234375,-0.27386487193107606,-0.1422270352423191,-0.19920688663609323
1790963461826992000,7.8169921875,0.004588505967194214,0.13629063093066215,-0.05934482695944607
1790963461837073200,7.8270732421875,0.7476724704921245,-0.23315876753330228,0.31556999730356033
1790963461847153000,7.83715283203125,0.14686112478375435,-0.04133797256052494,0.3338531113605946
1790963461857233200,7.847233154296875,-0.34723756665587424,-0.18600947834551335,1.3119473987028003
1790963461867313200,7.857313232421875,-0.38065468308925626,0.033790625920891756,0.7409693926569074
1790963461877393000,7.867392822265625,0.08799860144853591,-0.07983809134662151,1.0406750274829566
1790963461887473200,7.87747314453125,-0.2496563316141255,-0.10394552764296532,0.4016853422887623
1790963461897553000,7.887552978515625,-0.47767479538321495,0.18848317498266695,1.1187142527140677
1790963461907633200,7.897633056640625,0.21165070008039474,-0.04871463880836963,0.9291161752920597
1790963461917713000,7.907712890625,0.13306523914337157,0.14765373646616936,0.42983986201882357
1790963461927793200,7.917793212890625,0.18171852141963316,-0.18004267889559267,0.7441710382424295
1790963461937873200,7.927873046875,-0.331736046141386,-0.026958149552345274,0.17728227427154777
1790963461947953000,7.937952880859375,-0.290023395049572,-0.10776830080151557,0.7849193743467331
1790963461958033200,7.948033203125,0.22417115895748138,-0.0037269115686416623,0.36833683411218227
1790963461968113000,7.95811279296875,0.4586684816181659,-0.03267652719914913,0.4104330046288669
1790963461978193200,7.968193115234375,-0.10340309132933616,-0.055254854232072825,0.015136048202961683
1790963461988273200,7.978273193359375,-0.16411387287974358,0.013104396244883536,0.22440160671249032
1790963461998353000,7.988352783203125,0.3415712114572525,-0.06662322046458721,0.2017151431299746
1790963462008430800,7.998430908203125,0.3408639399707317,-0.06673427962362766,0.20267785068228839
1790963462018511000,8.008510986328124,0.8311854509592056,0.03321896351277828,0.4682361551042646
1790963462028591000,8.018591064453124,0.9057529084265231,-0.11651683992445468,0.3842315917279571
1790963462038671000,8.028671142578125,0.37389761004447936,0.0026946459114551543,0.2234604534048587
1790963462048751000,8.038751220703125,-0.10956161395907402,-0.04449439076483249,-0.18989793715141712
1790963462058831000,8.0488310546875,0.424089335668087,0.2036918500304222,-0.508276708265394
1790963462068912000,8.058912109375,0.9484358658552169,0.04540215325951576,-0.2130844592105597
1790963462078992100,8.0689921875,0.8190963692367076,0.10764145955145359,0.11884411382824182
1790963462089071900,8.07907177734375,0.35710663424134254,-0.05709785175025463,0.37733978638760746
1790963462099152100,8.089152099609375,0.22830959220277144,-0.08897650656998157,0.34999285671338437
1790963462109231900,8.09923193359375,0.3529717263936996,-0.15575813246667383,-0.02737498672492802
1790963462119312100,8.10931201171875,0.5126198520362377,0.10636953991949558,-0.05894435639977455
1790963462129392000,8.11939208984375,0.7330828041255474,0.07637947532534599,-0.13216434478089212
1790963462139472100,8.12947216796875,0.5865314759433269,0.13035188853144644,-0.4492048530284315
1790963462149552000,8.13955224609375,0.40126375587582586,0.11900748769640922,-0.41290414398275316
1790963462159632000,8.1496318359375,0.4086895219624042,0.03323533012568951,-0.6270487067054957
1790963462169712000,8.159712158203124,0.44637014105916023,-0.04097673803269863,-1.127641363274306
1790963462179792000,8.1697919921875,0.322187296551466,-0.11371698007285594,-1.202960296696052
1790963462189872000,8.1798720703125,0.29816697228299455,0.20637246741652487,-0.7270416973304002
1790963462199952100,8.1899521484375,0.4394762898921966,-0.010253098466992377,-0.7565173095963895
1790963462210031900,8.200031982421875,0.18463643642663954,0.2407698270589113,-1.5492404895618557
1790963462220112100,8.210112060546875,0.2550093648135662,0.20855682571828363,-1.458596634301543
1790963462230191900,8.22019189453125,0.35080198113918304,0.19257073655724524,-1.658995580266416
1790963462240272100,8.230272216796875,0.146634348556865,0.0796598121702671,-1.524224706248939
1790963462250352000,8.24035205078125,0.15770283679366112,0.05659282483756542,-1.0789947482008486
1790963462260432100,8.25043212890625,0.32927403994202614,0.009164718708395957,-1.3013666757166384
1790963462270512000,8.26051220703125,0.19268296476006508,0.024120880299806594,-1.429901870214939
1790963462280592000,8.270591796875,0.08294249623590148,0.07783493483066559,-1.3134239009961486
1790963462290673000,8.2806728515625,0.22199089230895042,0.1270820730805397,-0.9887891382273286
1790963462300753200,8.290753173828126,0.39400399400591846,0.1879448303222656,-0.14692856399677692
1790963462310833000,8.3008330078125,0.23713819255828855,0.00495440753698349,0.7068785416804254
1790963462320913200,8.3109130859375,-0.05923893716586753,-0.12044541154503821,0.6529845274727791
1790963462330993000,8.320992919921874,-0.4450678262889385,-0.29927637656331063,-0.6345169967595488
1790963462341073200,8.3310732421875,0.015626608198881148,0.07760697129368782,-0.4647938326306641
1790963462351153200,8.341153076171874,0.11019056864553131,-0.09155191001594067,-0.7283914314389228
1790963462361233000,8.35123291015625,0.033166941064596174,0.42521395578384397,0.21868783217556773
1790963462371313200,8.361313232421875,0.15120762955546377,0.12939444167613984,0.4871163582716137
1790963462381393000,8.371392822265625,-0.16232287954343483,0.05004325706362724,0.25558679937534035
1790963462391473200,8.38147314453125,-0.5146025502860546,-0.200585116186738,0.47144254993014034
1790963462401553200,8.39155322265625,-0.6333236222565174,-0.28518998354375363,0.631440584988892
1790963462411633000,8.4016328125,-0.18977789096832273,-0.3028933980166912,1.3461200096786021
1790963462421713200,8.411713134765625,-0.048293198525905606,-0.23116613241136072,1.67659378079921
1790963462431793000,8.42179296875,-0.4381798203408718,-0.024899463456869123,1.0428025410309434
1790963462441873200,8.431873046875,-0.7225929742932319,0.15132336488962173,0.04041610847525298
1790963462451953000,8.441952880859375,-0.6152689101278781,0.26942484365701674,-0.29436807319037617
1790963462462033200,8.452033203125,-0.3342506593108177,0.16864450204670428,-0.05696662658601999
1790963462472113200,8.462113037109376,-0.32680735756754875,0.07346855631470679,0.4331571698732674
1790963462482193000,8.47219287109375,-0.6816016232132911,-0.059171150892972944,0.23466310768164694
1790963462492273200,8.482273193359376,-0.8799719859600067,-0.15585750118792055,-0.13712138266637922
1790963462502353000,8.492352783203126,-0.7671873183012008,0.004933364748954772,-0.4563407693229615
1790963462512434000,8.502433837890624,-0.5402770897686481,0.2001753663420677,-0.44407560038119553
1790963462522514200,8.51251416015625,-0.3838870891392231,0.16676877130270004,-0.08940963729023933
1790963462532594000,8.522593994140625,-0.18469138148427008,0.10169687193334102,0.2023856628026813
1790963462542674200,8.532674072265625,-0.1990904937148094,0.011666472396254539,0.13207337856180965
1790963462552754000,8.54275390625,-0.6515279719889163,-0.21809563843607901,-0.07225771922022103
1790963462562834000,8.552833984375,-0.7987924168765544,-0.19415186826884745,-0.5085127089783549
1790963462572914200,8.5629140625,-0.5935434005320072,-0.13143851472437382,-0.5168961411159485
1790963462582994000,8.572993896484375,-0.3694190033257007,0.09640694883167743,-0.20280103867053983
1790963462593074200,8.58307421875,-0.22455928149223325,0.22334873665869234,-0.13266484164893627
1790963462603154000,8.59315380859375,-0.292604661980737,0.24805296980440616,0.009043722677230834
1790963462613234000,8.60323388671875,-0.453105002272129,0.1454506734639406,-0.18635843791365622
1790963462623314200,8.613314208984375,-0.5779565398216248,0.0063385553717613214,-0.32314474340677257
1790963462633394000,8.623393798828126,-0.5262801285982132,-0.12755787389874457,-0.16065262650996445
1790963462643474200,8.63347412109375,-0.27291091394079847,-0.08290858483314514,0.056739539831876754
1790963462653554000,8.643553955078126,-0.06519291366683319,-0.07741700167953967,0.11795534829497337
1790963462663634200,8.65363427734375,0.0931166568483226,0.11518413001596926,0.010220365241169928
1790963462673714000,8.6637138671875,0.18283375265253707,0.2475578797638416,-0.30267697878703476
1790963462683794000,8.6737939453125,-0.030875615257024765,0.21179449246525764,-0.41274215835407374
1790963462693874200,8.683874267578124,-0.1696972259700298,0.05793722518384456,-0.16160189005881548
1790963462703954000,8.693953857421874,0.033482564618717875,-0.1578986516267061,-0.00638897038474679
1790963462714035000,8.704034912109375,-0.0022468930108007043,-0.32121640569269655,-0.145222417666018
1790963462724115200,8.714115234375,-0.08665069397091865,-0.25886720928549767,-0.07676482138112187
1790963462734195000,8.72419482421875,-0.029023849910497664,-0.11355623655319214,0.07693257916346193
1790963462744275200,8.734275146484375,0.028252290149265898,-0.19672727171480656,-0.13501403512358665
1790963462754355000,8.74435498046875,0.9384253439724445,0.26206512854397296,0.10241875646710395
1790963462764435000,8.75443505859375,1.0901543670535088,0.27990239852964877,-0.12380305140987038
1790963462774515200,8.76451513671875,-0.6005623393833637,0.6872142023980617,0.06481237165033817
1790963462784595000,8.774594970703125,-1.1715887876808642,-0.2667763749748468,0.7249534198142588
1790963462794675200,8.78467529296875,0.6910486659944057,0.14544365920126437,0.06884659560248255
1790963462804755000,8.7947548828125,1.8701251790821551,-0.6897627178370952,-0.2225450190603733
1790963462814834200,8.804834228515626,0.13420620760573074,-0.8142296399831771,-1.0168620440885423
1790963462824914200,8.8149140625,-1.2268132467746733,0.2811737336397171,-0.491972639196366
1790963462834994200,8.824994140625,-1.0914917531371116,0.3062356941819191,1.1180635337203741
1790963462845074200,8.83507421875,-0.28615152205228805,0.6448772819280624,1.5317815513692796
1790963462855154000,8.84515380859375,0.05694996771216392,0.03000000146627426,1.3639179705671964
1790963462865234200,8.855234130859374,-0.7538999667048454,-0.046294718185067175,1.1209046023651956
1790963462875314200,8.865314208984374,-1.0251146163880824,-0.02657061153948307,0.9620973114609718
1790963462885394200,8.875394287109375,-0.6736018566310406,-0.14284955105483532,1.3163202069595454
1790963462895474200,8.88547412109375,-0.5784744262158871,0.42082536543607707,0.8711554961673915
1790963462905554200,8.89555419921875,-0.719808312010765,-0.05313070168495178,-0.3888878200359642
1790963462915635200,8.90563525390625,-0.04175119300391525,0.029409634357690808,-0.5669875481702387
1790963462925715200,8.915715087890625,-0.379463427478075,-0.5200947179615497,-1.1363599456503988
1790963462935795000,8.925794921875,-0.7621955013632774,-0.05194353772699833,-0.38354149057194586
1790963462945875200,8.935875244140625,-0.5831809964716435,-0.1524620135307312,0.3359681307531893
1790963462955955000,8.945954833984375,-0.24679566321969032,0.4274643650591373,-0.2896132068134844
1790963462966035200,8.95603515625,-0.14584754556072874,-0.1757329990029335,-0.299994607835263
1790963462976115200,8.966115234375,-0.3840425719618797,0.03394377065598964,-0.5064844180211424
1790963462986195200,8.9761953125,-0.22863104270948095,0.3216980517297983,0.18659721510559318
1790963462996275200,8.986275146484376,0.1709644876931794,0.48077451496422285,0.4228426966078579
1790963463006355000,8.99635498046875,0.2827461340555921,0.2789987276881933,-0.06051233636885881
1790963463016435200,9.006435302734374,-0.48459670360088347,-0.1637123063415289,0.03614683365821838
1790963463026515000,9.016514892578124,-1.347604695278406,-0.6471838053047657,-0.020392361295968293
1790963463036595200,9.02659521484375,-1.2269254749774932,-0.6094762982010841,0.23599735196009278
1790963463046675200,9.03667529296875,-0.38336215194966644,-0.1908037268847227,0.7241295362107455
1790963463056755000,9.0467548828125,0.3730371938228607,0.025690321573615074,0.4866336162559688
1790963463066835200,9.056835205078125,-0.05621697726249694,0.4683218606263399,0.6806281020060181
1790963463076915000,9.0669150390625,-0.900311009633541,0.3502794185698032,0.8981856880426407
1790963463086995200,9.0769951171875,-0.8900339457690716,0.10964695415496825,0.5558915691383183
1790963463097075200,9.0870751953125,-0.23420502518322317,-0.02391103694140911,0.5051993466466665
1790963463107155200,9.0971552734375,-0.07706685480130836,0.0037871173232793807,0.5531732500903308
1790963463117236200,9.107236328125,-0.7109680029511452,-0.31098142740428447,0.39430078499540683
1790963463127316200,9.117316162109375,-1.0141571690440176,-0.37455987334549423,0.6927685485895723
1790963463137396200,9.127396240234376,-0.5384510433852673,-0.4098538895666599,0.8124773164231329
1790963463147476200,9.137476318359376,-0.19130115501284597,-0.2958124998450279,0.5629273860592394
1790963463157556000,9.147555908203126,-0.28099017550004646,0.27330606900453563,0.6516298249281942
1790963463167636200,9.15763623046875,-0.702954207843542,0.49626492956280704,0.7702524049602448
1790963463177716000,9.167716064453124,-1.0676385838627815,0.43044776478409763,0.6585939648523926
1790963463187796200,9.177796142578124,-0.6668249098420143,0.03599135083556175,0.6544621988099067
1790963463197876200,9.187876220703124,-0.36299627680182456,-0.2445996144801378,0.4068145218707621
1790963463207956000,9.1979560546875,-0.6278606806755066,-0.5822235496163368,0.27949725179485974
1790963463218036200,9.2080361328125,-0.6025134734511375,-0.21455518935024737,0.3303425459563732
1790963463228116000,9.218115966796875,-0.22415362330079078,-0.015393968486785889,0.42676111216060814
1790963463238196200,9.2281962890625,-0.47019174615144727,0.04112696015834808,0.48883412197493015
1790963463248276200,9.238276123046875,-0.6771195093631744,0.3355751859128475,0.4081005430933088
1790963463258356000,9.24835595703125,-0.8635457518160342,0.3246843740642071,0.19858648971542714
1790963463268436200,9.258436279296875,-1.0836778645157814,0.17831249410212038,0.15928075363487004
1790963463278516000,9.268515869140625,-0.7757669305980205,-0.3577560380607843,0.07723777265511453
1790963463288596200,9.27859619140625,-0.9805506675183773,-0.9175947373896837,-0.13053089836016296
1790963463298676000,9.288676025390625,-0.9781050279319286,-0.244243056127429,0.18703407215289772
1790963463308757000,9.298757080078126,-0.6337596755862236,0.28813071317076683,0.30989735849462446
1790963463318837200,9.308837158203126,-0.6750362733483314,0.8654132992535829,0.1079527905229479
1790963463328917000,9.3189169921875,-0.8084475494503974,0.25210896719694137,0.04471263662539422
1790963463338997200,9.328997314453124,-1.0986755271613597,0.22271569945216177,-0.20907383532971144
1790963463349077200,9.3390771484375,-1.384737032842636,-0.4689829548835754,0.04359627288132906
1790963463359157000,9.349156982421874,-1.5731331140637397,-0.24403905798792838,0.1844051849540323
1790963463369237200,9.3592373046875,-1.413859082430601,-0.7381558696061372,0.1843309506740421
1790963463379317000,9.36931689453125,-0.8925275161504745,-0.43096272856891155,0.4482783127680421
1790963463389397200,9.379397216796875,-1.0077356115639209,0.34100247165858744,-0.015492533490434288
1790963463399477200,9.389477294921875,-0.7572188819944858,0.23059447000324726,0.389128277728334
1790963463409557000,9.399556884765625,-0.7606839277565479,-0.09730828158557414,0.2354891832422465
1790963463419637200,9.40963720703125,-1.4448223759710788,0.11347264992296695,0.08281601117886603
1790963463429717000,9.419717041015625,-1.45160867511034,0.3939122240692377,0.8843082615986466
1790963463439797200,9.42979736328125,-1.4162006771206854,-0.5041729262083768,0.16311331753507255
1790963463449877000,9.439876953125,-1.1584358761191367,-0.5931295590341091,-0.04528714857771993
1790963463459957200,9.449957275390625,-0.5575660782217979,-0.6796078190475702,-0.10162439121901988
1790963463470037200,9.460037353515625,-0.4978571671903133,-0.030193478211760518,-0.3850065216232091
1790963463480117000,9.470116943359375,-0.8838111257314681,-0.025915947023034094,-0.06123400170691311
1790963463490197200,9.480197265625,-1.5786428173959255,0.06486790122985839,-0.3290834858059883
1790963463500278300,9.4902783203125,-1.7605717484295367,-0.1336871704339981,-0.44588571854308245
1790963463510358000,9.50035791015625,-1.4865046319246291,0.0832674812734127,-0.13836122665964065
1790963463520438300,9.510438232421874,-0.5137152460575104,0.25160277124047276,-0.5949661268115043
1790963463530518000,9.52051806640625,0.11007719879839568,0.4178150777041912,-1.0948151254061609
1790963463540598300,9.530598388671875,-0.9341068962514399,-0.4938619600743055,-1.0087287142544985
1790963463550678000,9.540677978515625,-1.6367454622745512,-0.16435469589829443,-1.0093011803802103
1790963463560758000,9.550758056640625,-1.3758780190825461,-0.144336574742198,-1.1473497608941048
1790963463570838300,9.56083837890625,-0.7345429398059845,0.10656769284009933,-0.502885809007287
1790963463580918000,9.57091796875,0.46888712982628494,0.13280103524923323,-0.6164502288669348
1790963463590998300,9.580998291015625,0.20047349077211693,-0.6623375352948904,-0.7896887807056308
1790963463601078000,9.591078125,-0.6564917318761349,-0.08074702288508415,-0.4911756070671603
1790963463611158000,9.601157958984375,-1.008061774778366,0.33918870023488995,-0.5769735566662624
1790963463621238300,9.61123828125,-1.2499556374311447,0.4814151509553194,-0.14729816449414937
1790963463631318000,9.621318115234375,-0.3472831593632698,-0.10939385617673396,-0.5154100307440385
1790963463641398300,9.631398193359376,0.3996072208404541,-0.6673007106602191,-1.0442530321002006
1790963463651478000,9.64147802734375,0.5163315660357475,0.9999573787778615,-0.8811720093995332
1790963463661558300,9.651558349609376,0.13899581650244072,0.3608680326014757,-1.1332204055156558
1790963463671638000,9.661637939453126,-0.7477052037179469,0.07396832253038883,-0.7336487674452364
1790963463681719000,9.671718994140624,0.4170166208028793,-0.4029360730022192,-0.7991423993580042
1790963463691799000,9.681799072265624,1.4890496402323246,-0.053904608666896815,-0.9269272869456558
1790963463701879000,9.691879150390625,0.5761328315258025,0.2323094572275877,-1.1841906412310899
1790963463711959000,9.701958984375,-1.1316589283525944,-0.3594377075374126,-0.6735378514841198
1790963463722039300,9.712039306640625,-1.907363899630308,-0.48616497583091256,0.1587409842023626
1790963463732119000,9.722119140625,-1.0268997462391853,0.018132453539967536,0.879323678119108
1790963463742199300,9.73219921875,0.2916518730342388,0.6461632300853729,1.6862233405403793
1790963463752279000,9.742279052734375,1.3717162232279776,0.9854390240818262,1.8403753529846667
1790963463762359000,9.752359130859375,0.913449892669916,-0.21846096461713313,2.051632231441885
1790963463772439300,9.762439208984375,-1.0687877538979054,-0.47061786260902877,1.9183092181451618
1790963463782519000,9.77251904296875,-1.8777263017356394,0.059601943525671955,2.0830448761850593
1790963463792599300,9.782599365234375,-1.3007611110389232,0.19076982461512088,2.2962951204165813
1790963463802679000,9.792678955078125,-0.02023499704347923,-0.328254049244523,0.40982649010308086
1790963463812759800,9.802759765625,1.0362696321308613,-0.19928981567919254,-0.8508928987309337
1790963463822840000,9.812840087890624,0.29117490317225453,-0.3605003683328628,-0.3704791799031198
1790963463832919800,9.822919921875,-1.1898211944639683,0.49877837368845934,0.072196709747985
1790963463842999800,9.832999755859374,-0.9999170467674732,0.2600532041996717,0.21629118282999843
1790963463853079800,9.843079833984374,0.7291887192964553,0.7239198389828204,0.06070822426714003
1790963463863159800,9.853159912109374,2.0064602336764334,0.8893325195014476,-1.2369332203812897
1790963463873240800,9.86324072265625,1.5410755955457687,0.18453589866161346,-2.5868296798586843
1790963463883320800,9.87332080078125,-0.18396657434105873,0.10172785159349441,-3.2264652617409824
1790963463893400800,9.88340087890625,-1.2921838368296623,-0.7698644285559654,-2.719603827100992
1790963463903480800,9.893480712890625,-1.5880395912945269,-0.6130915660887957,-3.0423268379643558
1790963463913560800,9.903560791015625,-0.9249287335395813,0.6129565415322781,-3.6661119397640225
1790963463923641000,9.91364111328125,0.34916648889184,1.0186877982109785,-2.6464374686032532
1790963463933720800,9.923720947265625,1.0181097060620785,1.1201222198158503,-2.667613527622819
1790963463943800800,9.93380078125,0.9256243145883083,-0.5926432368218898,-2.6937781887099144
1790963463953880800,9.943880859375,-0.34202830757498737,-1.3227841422766446,-2.717621713373065
1790963463963960800,9.9539609375,-1.5386147583901881,-0.8112614378273486,-2.6024524886652824
1790963463974041000,9.964041015625,-1.3285551268935203,-0.11151742420196532,-1.9377607914596795
1790963463984120800,9.974120849609376,0.28382159953368824,0.006492284628748893,-2.6283403786376116
1790963463994200800,9.984200927734374,1.5478396828532217,0.47007893342673773,-3.184055860556662
1790963464004280800,9.99428076171875,1.5639070205569265,1.2461369559258222,-3.0072955643326043
1790963464014360800,10.00436083984375,-0.444408485597372,-0.24791736072599888,-2.4176908184237775
1790963464024440800,10.01444091796875,-1.413993522465229,0.15588029754161833,-3.0384216472193595
1790963464034520800,10.024520751953125,0.2477180570279248,-0.5039011235296726,-2.915892122876644
1790963464044601900,10.034601806640625,1.3356488845467567,-0.08135960182547569,-2.680642228282988
1790963464054681900,10.044681884765625,1.4118015653789042,-0.40741234163343903,-2.339567568171024
1790963464064761900,10.054761962890625,0.7711784337639809,0.10178571926057338,-0.8555180012483149
1790963464074841900,10.064841796875,-0.028940829535853117,0.27165421014428137,-0.5903579023636877
1790963464084921900,10.074921875,0.40634562571737914,0.36522622781097885,-0.3610018150489777
1790963464095001900,10.085001953125,1.8477952738523482,0.2780184844791889,-0.5961679768819361
1790963464105081900,10.095081787109375,1.2226058582127093,-0.6844593507319688,-0.727839058253169
1790963464115161900,10.105161865234376,0.3846878841280937,0.7977642428725957,-0.08956899257041513
1790963464125241900,10.115241943359376,0.7530301981329918,-0.3785276079326868,0.8816749174203723
1790963464135321900,10.12532177734375,0.26307697246763856,-0.1913566845923662,0.22111732434481382
1790963464145401900,10.13540185546875,-0.16466681232107802,0.08190086909532547,0.44922932988256215
1790963464155481900,10.14548193359375,-0.030675745303370056,0.23430326139330862,2.2292519209742543
1790963464165561900,10.155561767578124,-0.25980131179783494,-0.11105331382155417,2.3775989004015923
1790963464175641900,10.165641845703124,-0.2719616686582565,0.39344402203559875,2.635727858540416
1790963464185721900,10.175721923828124,-0.7613502827107906,-0.8330074056893587,2.7117607123851775
1790963464195801900,10.1858017578125,-1.4696622181952,-0.660685676434636,1.6587046344958245
1790963464205881900,10.1958818359375,-1.527298414605856,0.27440730824470516,1.4579491301782428
1790963464215961900,10.2059619140625,-0.04680498752845451,1.290795012819767,1.7638532543182373
1790963464226043000,10.21604296875,0.5271989970088005,0.028036007916927334,1.782652939595282
1790963464236123000,10.226122802734375,-0.6508557718157768,0.4299485830903053,1.9273536714747548
1790963464246203000,10.236202880859375,-1.3922563224315643,-1.1330553511470556,1.8723343795642255
1790963464256283000,10.246282958984375,-1.1637994489789008,-0.6858797389239072,2.675579976457357
1790963464266363000,10.25636279296875,-0.8136696680128573,0.09325754489004612,2.8951114929154516
1790963464276443000,10.26644287109375,-0.752059891796112,-0.07841185793578624,1.3880258452549576
1790963464286523000,10.27652294921875,-0.4432674988687038,0.17091478506624697,0.7295073567915707
1790963464296603000,10.286602783203126,0.05424363136291504,0.17258944028019904,0.11920739418268203
1790963464306683000,10.296682861328126,-0.4157961025645956,-1.114822359842062,-0.061852425866201516
1790963464316763000,10.306762939453124,-0.5762462287724017,-0.18229601078033447,0.6232520909015089
1790963464326843000,10.3168427734375,1.2974760980188846,0.3203431299895048,1.336737556566298
1790963464336923000,10.3269228515625,1.8355355117380618,-0.38665830741822715,1.3601590564250945
1790963464347003000,10.3370029296875,1.414604932361841,0.978548095524311,0.7959515674274414
1790963464357083000,10.347082763671875,0.406658892917633,-0.44294718087315554,1.3668183681838213
1790963464367163000,10.357162841796875,-1.065099420773983,0.45261049675345416,1.5438424299106002
1790963464377243000,10.367242919921875,0.2845616225123405,-0.4841857847124338,1.7345225304156542
1790963464387323000,10.377322998046875,2.167948434227705,-0.6867173587918282,1.7305303920395672
1790963464397404000,10.38740380859375,2.7928678007543084,0.15989537840187548,0.3938564022287726
1790963464407484000,10.39748388671875,1.9123124619483947,-0.859456436675787,-0.4882816026587039
1790963464417564000,10.40756396484375,1.902197895169258,0.6942687970846891,0.18656302057504653
1790963464427643600,10.4176435546875,1.9773042818188666,1.316427466726303,-0.7776203033797442
1790963464437724000,10.427723876953126,1.1465361794888973,0.44291327860355373,-0.17050503522157667
1790963464447804000,10.437803955078126,0.3845464298307895,-0.19082827680408954,0.8515604227289557
1790963464457884000,10.4478837890625,2.5981647283434866,-0.6482908897638321,0.5970503857396543
1790963464467964000,10.4579638671875,2.8014696248829365,-1.4497674311578272,-0.550836039314419
1790963464478044000,10.4680439453125,0.6498433799028396,-0.6254694016247987,-0.9296926600057631
1790963464488124000,10.4781240234375,-1.6931144152283668,0.7261644030392169,0.04314641022197902
1790963464498204000,10.488203857421874,-0.8007681008636951,1.748282760220766,0.5933696514002978
1790963464508284000,10.498283935546874,2.9044156200945377,0.7720002715408801,0.8176550113219767
1790963464518364000,10.508364013671875,4.816019641512632,1.1023311270594596,0.18696268741711974
1790963464528444000,10.51844384765625,5.054889187908172,-1.11521749663949,-0.11393047669306397
1790963464538524000,10.52852392578125,1.9760159955739973,-2.801725645470619,-0.21542853811867535
1790963464548603600,10.538603759765625,-1.1875661090135574,-1.5115233378469943,0.12126103877685963
1790963464558684000,10.548683837890625,-2.69836463971734,0.11436755293607712,0.8754147610470652
1790963464568764000,10.558763916015625,-2.571068631625175,3.4579660329341886,1.5106423172287642
1790963464578844700,10.5688447265625,-0.21917583488821982,2.020851162600517,1.3642156383395194
1790963464588925000,10.578925048828125,1.574712492209673,-0.25117665478289125,0.010580576855689286
1790963464599005000,10.5890048828125,0.3742529993534088,-2.1005945614010093,-0.40912173936720936
1790963464609085000,10.5990849609375,-1.1850140864431857,-2.007509450468421,-0.6560612315043807
1790963464619165000,10.6091650390625,0.46988428763747214,-0.22336334970593452,-0.7664685025073588
1790963464629245000,10.619244873046876,1.705570576697588,0.53747606087327,0.2664759307235479
1790963464639325000,10.629324951171874,0.9373755426585674,1.1320908900290727,0.19695845012217758
1790963464649404700,10.63940478515625,-1.1105822380542754,1.9852403355151413,1.1481004331309348
1790963464659485000,10.64948486328125,-3.301327025979757,-0.024269348859786984,2.4157360310941933
1790963464669565000,10.65956494140625,-2.8986896436631677,0.6220493640482425,4.390899209231138
1790963464679645000,10.66964501953125,0.024957915645837783,-3.003700170189142,4.732091942764819
1790963464689725000,10.679724853515625,1.1976701543986796,-4.02921343050599,1.9711112723976372
1790963464699804700,10.6898046875,0.23338908742414785,0.5762415525972843,-1.0410651958443224
1790963464709885000,10.699885009765625,0.4388508880028501,3.555032906979322,-2.156541489550471
1790963464719965000,10.70996484375,1.7367618337750435,1.7061176891863346,-0.8064638282872736
1790963464730045000,10.720044921875,0.9369850820362567,0.22200258274674414,1.7163517906919121
1790963464740126000,10.7301259765625,-1.2772247526288032,-1.5358891328185795,1.2712842566639184
1790963464750206000,10.7402060546875,-1.4187655591726303,-1.5104787972301243,2.0726522231169042
1790963464760286000,10.750285888671876,-0.19053079169485718,-1.1046510944396257,2.174548563145101
1790963464770366000,10.760365966796876,-0.34294951407313345,-0.7349000826805829,-0.31284670981951057
1790963464780445700,10.77044580078125,-0.32957802785728124,1.8634458474487066,-0.49495392002947625
1790963464790526000,10.78052587890625,0.8202455392718314,1.5613777943402527,0.509955199404247
1790963464800605700,10.790605712890626,-0.07129530392885208,-0.046940030351281165,1.1077205650128423
1790963464810685200,10.800685302734376,-0.9367419209301471,-0.42333997860550876,0.5981615983845666
1790963464820765000,10.810764892578124,-0.3080897976160049,-1.3524515507876873,0.7748128447435796
1790963464830845200,10.82084521484375,-1.1362906798064707,-1.3243915774732828,0.34533882036246355
1790963464840925200,10.83092529296875,-1.8966250634729862,-0.03410217608809471,0.23128005938092244
1790963464851005200,10.841005126953124,-1.204437748837471,0.28829028764665127,0.2691035027481615
1790963464861085200,10.851085205078125,-0.38553423529174174,0.8895791877388953,0.24964129844177513
1790963464871165000,10.8611650390625,0.9439221878230571,1.777964197257161,0.018551181275537235
1790963464881245200,10.8712451171875,0.5139934784770012,-1.121060377448797,-0.8965180470913648
1790963464891325200,10.8813251953125,-1.2824071237027643,-1.024934583646059,-0.7089982372481376
1790963464901405200,10.8914052734375,-1.209700783932209,-0.694824677401781,-0.601620177873224
1790963464911486200,10.901486328125,-0.8063561301290988,0.2634106979340315,-0.7946991562135517
1790963464921566000,10.91156591796875,-0.30836806656811383,0.3495663018643856,-0.5273623343443498
1790963464931646200,10.921646240234375,0.6943348480582237,1.1310177078396082,-1.2398524688288568
1790963464941726200,10.931726318359376,0.6005319807777181,0.49624213320910926,-1.3741352670684457
1790963464951806000,10.941805908203126,-0.5818692928185686,-0.025616671815514563,-0.5324257186811417
1790963464961886200,10.95188623046875,-1.3612988741099834,-1.4022183289974928,-1.1594090320002286
1790963464971966000,10.961966064453126,-1.2919184638917445,-0.38963995357751846,-2.03895497456789
1790963464982046200,10.972046142578124,-0.32306758651733397,0.347327583026886,-1.6273216542385518
1790963464992126200,10.982126220703124,-0.7622726582527161,0.1294651688247919,-2.05719074235186
1790963465002206200,10.992206298828124,-0.8451578622102737,1.2469704841405151,-2.4581594608038664
1790963465012286200,11.0022861328125,0.3224269505262375,0.2530553081363439,-1.7188268025033175
1790963465022366000,11.012365966796875,-0.36110827109813687,-0.6601689590841532,-2.233070894740522
1790963465032446200,11.0224462890625,-1.0003577762722968,-0.5067541748732328,-2.5403125510945914
1790963465042526000,11.03252587890625,-0.4329506875157356,0.546094251614809,-1.983833537457138
1790963465052606200,11.042606201171875,-0.7398001296818256,0.06649813278019427,-1.689120961678028
1790963465062686200,11.052686279296875,-0.2724140703345649,0.6589414631158113,-1.9899454444661735
1790963465072766000,11.062765869140625,0.15926467928290367,-0.5824351465404033,-2.625697755174339
1790963465082847200,11.07284716796875,-0.9907985052883624,-0.2634399240285158,-2.5476161521062255
1790963465092927200,11.08292724609375,-1.106317566347122,0.0024117373168468475,-2.136561216186732
1790963465103007000,11.093007080078126,-0.8164262732446194,0.027886954835057258,-1.6846669048786163
1790963465113087200,11.103087158203126,-0.2832090388596058,1.160572888147831,-1.730207005304098
1790963465123167000,11.1131669921875,-0.4446703514039516,-0.903175751414895,-1.0797771307501942
1790963465133247200,11.123247314453126,-0.6162987646322697,-1.354747552770376,-1.1195009461123495
1790963465143327200,11.1333271484375,-0.04580428605331108,-0.981228128388524,-1.6222059186600148
1790963465153407000,11.143406982421874,-1.1846879232287406,1.1840589776754378,-0.7284960608571768
1790963465163487200,11.1534873046875,-0.7878174338757992,2.136483620905876,0.9189826846167445
1790963465173567000,11.16356689453125,-0.12519056024551392,0.8202274190932511,0.13474634236441924
1790963465183647200,11.173647216796875,-0.9232944103360176,0.07028817271292209,-1.079291246929392
1790963465193727000,11.18372705078125,-1.4383365210831165,-0.5111281521737575,0.030815208572987467
1790963465203807200,11.19380712890625,-1.7485820354282855,-1.4199211589485405,0.15220228488231077
1790963465213887200,11.20388720703125,-1.6457120280623434,-0.5502881961733103,-0.2080184810578823
1790963465223967000,11.213967041015625,-0.3662567764351144,0.030779169145226475,-0.05561449959101155
1790963465234047200,11.224047119140625,-0.3570645851979032,0.5089975698858499,0.23885000144485383
1790963465244128300,11.234128173828125,-0.809931066006422,1.2723656221598385,0.014438476126547903
1790963465254208000,11.2442080078125,-0.8470505440890789,-0.855390502411127,0.6185454475805163
1790963465264288300,11.254288330078126,-1.2274386851966381,-0.7401987736105918,0.14888645659890026
1790963465274368000,11.264367919921876,-0.31740356940627096,0.4866460373461246,-0.30881515274848786
1790963465284448300,11.2744482421875,-0.4949380648732185,-0.8212912489324807,0.8135952876023947
1790963465294528000,11.284528076171876,-1.4359049100220203,-0.6305524039775133,-0.2929663531662896
1790963465304608000,11.29460791015625,-0.28747604865431786,0.11378361556828022,-0.2869553127158433
1790963465314688300,11.304688232421874,0.41652094624042507,0.06933949368596076,0.8319180030174553
1790963465324768000,11.31476806640625,-0.46102874447610226,-0.09698270289301872,-0.4881210418021306
1790963465334848300,11.32484814453125,-1.074028577160835,-0.13435937060713768,0.0148499247379601
1790963465344928000,11.334927978515625,-1.042823291558027,0.5691372735500335,0.84216218752563
1790963465355008000,11.345008056640625,-0.2367313287904486,0.07514554961621761,-0.2227077353414148
1790963465365088300,11.355088134765625,0.38150457791686054,0.31989597074389453,-0.09030293286815286
1790963465375168000,11.36516796875,-0.019169979894161224,-0.2501297760784626,-0.23595270910076796
1790963465385248300,11.375248291015625,-1.6814660630106926,-1.3474042042702437,-0.17736644542366264
1790963465395328000,11.385327880859375,-1.701871722179651,0.3282867824703455,-0.3889573781408369
1790963465405409000,11.395408935546875,-0.6832558201611042,0.14773147787749766,0.5822177774626761
1790963465415489300,11.4054892578125,-0.473157610219717,0.7446826410263776,0.3850487167971208
1790963465425569000,11.415569091796876,0.44446690125372257,0.9177560654312371,-0.10365626237280666
1790963465435649300,11.425649169921876,-0.08056815918684006,0.16559212873876095,1.0850713647007941
1790963465445729000,11.43572900390625,-0.9926689753353595,-0.13383154734075067,0.41279608049839733
1790963465455809000,11.44580908203125,-0.1838636984884739,-0.15342355203926564,0.3869962341357022
1790963465465889300,11.45588916015625,-0.5876385238697752,-0.7356774967938661,0.8348813098024577
1790963465475969000,11.465968994140624,-1.4809025741338728,-0.12089841600954532,0.2648607506118715
1790963465486049300,11.47604931640625,-0.746091923302412,-0.10424480285048485,1.103264900778234
1790963465496129000,11.48612890625,-0.030066673494316635,0.3355272551178932,0.8438795128375292
1790963465506209000,11.496208984375,0.28393969122171403,0.42410511775910853,0.3508010312911123
1790963465516289300,11.506289306640625,-0.019459866218827664,0.5929822595179081,1.1302616287752985
1790963465526369000,11.516369140625,-1.6470657807588576,-1.5569681612044572,0.758819741319865
1790963465536449300,11.52644921875,-2.0067852278470992,-0.49662382600307464,1.4367980594694614
1790963465546529000,11.536529052734375,0.19389645046936346,0.39471594166755675,2.0515634039893746
1790963465556609300,11.546609375,0.3337748219599947,-0.22707272561788558,1.583696739784628
1790963465566690300,11.556690185546875,-1.0957178463995456,-0.2562812844455242,0.8448872285753488
1790963465576770000,11.56677001953125,-1.464650527513027,-0.04710486552417278,1.578362977541238
1790963465586850000,11.57685009765625,-0.7154863571584225,1.442813374236226,1.6395558435201645
1790963465596930000,11.586929931640626,0.2040297219489701,-0.48981239242255686,1.7476840636752544
1790963465607010000,11.597010009765626,-0.3764847039282322,-1.3036124088168144,1.2148626967400311
1790963465617090300,11.60709033203125,-0.8531833477556705,-0.26505788061916824,0.4736436401709914
1790963465627170000,11.617170166015624,-1.3255109368920326,-0.6950315981507301,1.7120982249006629
1790963465637250300,11.627250244140624,-1.6387971341073513,0.6031482642233371,1.282245503400266
1790963465647330000,11.637330078125,-0.5858686281204223,0.11040917069911955,0.8209663278270513
1790963465657410000,11.64741015625,0.2639840773751959,0.04080196598768234,1.4105065571323037
1790963465667490000,11.657489990234374,0.9025169952452182,1.1325000553518534,0.2823683685180731
1790963465677570000,11.667570068359375,0.32751225443389265,-0.13282266255915165,0.44890543169043956
1790963465687650300,11.677650390625,-1.1800573408186434,-0.382818583124876,0.9313276407964527
1790963465697730000,11.68772998046875,-0.5211036027431488,-0.8291086446851491,0.3002713241511024
1790963465707810000,11.69781005859375,0.8418155660450458,0.24544249504506588,0.678419339915365
1790963465717890000,11.70789013671875,0.638140155692771,-0.3320692236185074,0.7414902016606182
1790963465727970000,11.717969970703125,-0.7087912434339523,0.3079676325410604,0.5045908593595028
1790963465738051000,11.728051025390625,-0.4907388596177101,0.02649696178138256,0.6457114677298814
1790963465748131000,11.738131103515625,-0.3499672838807106,0.009911153161525726,1.0857507252670824
1790963465758211000,11.748211181640626,-0.3369114394852891,-0.23564240104258058,0.3859824539832771
1790963465768291300,11.758291259765626,-0.25339135342398655,-0.7012631860166788,0.8460691318362951
1790963465778371000,11.76837109375,0.2748223735853098,1.1762176165252922,0.6036190966054796
1790963465788451000,11.778451171875,0.5247627463052049,0.2076046395599842,1.1021965408943593
1790963465798531000,11.788531005859374,-0.07221187078449874,-0.7012883204579353,0.7519376536559313
1790963465808611000,11.798611083984374,-0.2809633057594299,-1.2784738759070635,0.20907219136189667
1790963465818692000,11.808692138671875,-0.06079961061133071,0.7344383103877306,0.8098227833263576
1790963465828772000,11.818772216796875,0.42161096285581584,0.8051485079050064,0.9795172328174113
1790963465838851800,11.828851806640625,0.21785832254886625,0.09438041144013404,0.10335221965862437
1790963465848932000,11.83893212890625,-0.25723756225705147,-0.4568178853154182,-0.9850512668732553
1790963465859011800,11.84901171875,-0.8353554301202297,-0.0721399380594492,-0.7327303374260663
1790963465869092000,11.859092041015625,-0.7319020699083805,0.19097265371084213,-0.38907906829174604
1790963465879172000,11.869172119140625,-0.1826210049510002,-0.17157938645482063,-0.8594696614835411
1790963465889251800,11.879251953125,0.957887584811449,1.8285884690791367,-1.1737209774039685
1790963465899333000,11.8893330078125,1.2380734764575958,0.4678203408449888,-1.4821318236678838
1790963465909413000,11.8994130859375,-0.18672317957282064,0.5468289956301451,-1.9076368713527916
1790963465919492900,11.909492919921876,-1.063786584609747,-0.34893034204840656,-1.7874787523165345
1790963465929573000,11.919572998046876,-0.6030547407209873,-1.1607353852331637,-1.568760159676522
1790963465939652900,11.92965283203125,0.6570458586275577,0.35721360174715516,-2.0713886329218743
1790963465949733000,11.939733154296874,1.503414850193262,0.5879875199705362,-1.9860589584216475
1790963465959813000,11.949813232421874,0.5832604914486408,-0.32534663736522196,-1.8424832850493489
1790963465969892900,11.959892822265624,-0.6151157653927802,0.13159867372214792,-1.9218505440138278
1790963465979973000,11.96997314453125,0.12414194624172523,0.6710019032657146,-1.161061256186664
1790963465990052900,11.980052978515625,1.0519278045117855,-0.20277531970739363,-1.0275663203891365
1790963466000133000,11.990133056640625,0.7463444367587566,0.11757599358856677,-1.543997328211367
1790963466010212900,12.000212890625,0.07990300980899483,-0.606333908522129,-0.845080705320835
1790963466020293000,12.010293212890625,-1.6017571510016917,-1.039319667351246,-0.8924017708789557
1790963466030373000,12.020373046875,-1.1905495087385176,-0.1870090107768774,-1.266763125977665
1790963466040452900,12.030452880859375,1.1542214732944964,0.12043547467291355,-1.0254638682171702
1790963466050534000,12.040533935546875,1.9243185415625572,0.659479223254323,-1.5922146850220857
1790963466060614100,12.0506142578125,1.6976584883987902,0.12572539777457714,-1.1169161172509192
1790963466070694000,12.06069384765625,0.6740893478870391,0.4604524424254894,-0.6150457688964903
1790963466080774100,12.070774169921876,-0.27792028480172154,-0.20681027431190013,-0.7456034091331064
1790963466090854000,12.08085400390625,-0.5459890742072835,-1.0195593203485012,-0.09339282517489045
1790963466100934100,12.09093408203125,-0.05410688977334648,-0.17103052040040492,-1.016098439304903
1790963466111014000,12.101013916015624,0.7463292391896248,1.2358651527583597,-0.4501189721986651
1790963466121094000,12.111093994140624,0.04026539315925911,-0.5812509051918983,-0.0009194529324769973
1790963466131174100,12.121174072265624,-0.8111597310185432,-0.6814572463065386,-0.3724382780816406
1790963466141254000,12.13125390625,0.9090425976216793,0.8082429667890071,-0.3258106746803969
1790963466151334100,12.141334228515625,1.1779238359212876,0.6544371374338865,0.4403755768194794
1790963466161414000,12.151413818359375,-0.042635008367430414,0.1881365535020828,0.01016940223891288
1790963466171494000,12.161493896484375,-0.3053811231791973,-0.3469897293746471,-0.34446167220175267
1790963466181574100,12.17157421875,-0.007416413736343383,-0.37371991539001465,0.31218521370347585
1790963466191654000,12.18165380859375,0.0590858106970787,-0.608135404986143,0.8303779339686036
1790963466201734100,12.191734130859375,0.041675241690874096,-0.004541150560975074,-0.23433106271568685
1790963466211815200,12.201815185546875,-0.5223252534925937,-0.13998597831726073,0.506357430640608
1790963466221895000,12.21189501953125,-0.027106618112325665,0.47621290613710876,0.18534608253333718
1790963466231975200,12.22197509765625,0.5549076726675033,1.0218331104993819,-0.30465766774285585
1790963466242055000,12.232054931640626,-0.10056931094182654,-0.2792909886330366,0.48646490862555797
1790963466252135000,12.242135009765626,-0.3357026116847992,-0.5877706623494625,-0.06884133490547538
1790963466262215000,12.25221484375,-0.04890457188989967,-0.24839199250042437,-0.15784352390598505
1790963466272295000,12.262294921875,-0.26626605083253235,-0.42518882134258745,0.11101002266909926
1790963466282375200,12.272375244140624,-0.4675333405971527,-0.5324813213258981,-0.36736254571992905
1790963466292455000,12.282454833984374,-0.078572583189141,0.48415597409605976,-0.719213268727064
1790963466302535200,12.29253515625,0.4389712629795074,0.6394149248689412,0.1905207817574963
1790963466312615000,12.302614990234375,0.6170061091840267,1.5012567953765392,-0.3113298755157739
1790963466322695000,12.31269482421875,0.22058104377733542,-0.40543958025574683,-0.9691177846822887
1790963466332775200,12.322775146484375,-0.8898480678081512,0.09225275176167487,-0.07603139254003763
1790963466342855000,12.33285498046875,-0.3560977494597435,-0.03328442996442318,-0.5344222627932206
1790963466352935200,12.34293505859375,-0.5797942401101812,-0.681223437550664,-0.21472579667679964
1790963466363015000,12.353014892578125,0.49215223354697224,1.294228494399786,-0.31258126381635665
1790963466373096000,12.363095947265625,0.42604631495475764,-0.8791144923478365,0.22529369671400634
1790963466383176200,12.37317626953125,-0.5172632939279079,0.5244353775143623,-0.19927417971864342
1790963466393257000,12.383257080078126,-0.05704814912332221,0.4769797988563776,-0.13969167154580353
1790963466403337000,12.3933369140625,0.6148772804617881,1.4825018260240554,0.17430442750453948
1790963466413417200,12.403417236328124,0.21824648161623625,-0.7084042899429798,-0.08095551453661173
1790963466423497000,12.4134970703125,0.17273443824145943,-0.008302548921108245,-0.584509614726901
1790963466433577000,12.423576904296874,-0.24910920085906982,-0.9338684113204478,-0.27842728447578846
1790963466443657000,12.433656982421875,-1.2407225296616553,-0.5916653317004442,0.40396928850747643
1790963466453737000,12.443737060546875,-1.2332219447731971,-1.4584212777346373,-0.2690797200137749
1790963466463817000,12.45381689453125,0.07498831322789191,0.7007949839830399,-0.06851349119059741
1790963466473897000,12.46389697265625,1.2713199124991894,-0.062276131170988076,0.3920817207064479
1790963466483977000,12.47397705078125,0.07918989310357719,-0.24906127006411552,-0.6445850209832191
1790963466494057000,12.484056884765625,-0.4303963268578052,0.5743745896816254,-0.3810511350609362
1790963466504137000,12.494136962890625,-0.1894272143671289,0.17274726119041442,0.5504716629814356
1790963466514217000,12.504217041015625,0.28428569164779033,0.4128337821602821,-0.5862007826842367
1790963466524298000,12.514298095703126,0.20833299036715178,-1.087740291649103,0.2128460838774219
1790963466534378000,12.5243779296875,-0.5528045263757929,-0.13526830214560032,-0.18484222466442732
1790963466544458000,12.5344580078125,-0.43726212097406386,0.6875953106701373,0.15658713063672183
1790963466554538000,12.5445380859375,-0.6889782894611358,0.3426438091248274,0.6273671980701386
1790963466564618000,12.554617919921874,-0.3324246129274368,0.11480594435334204,0.15661898707970975
1790963466574698000,12.564697998046874,1.3925824856460094,1.3604963255554436,0.3077157036066055
1790963466584778000,12.574778076171874,0.5238181223988533,-1.2711229286223649,0.3494828613646328
1790963466594858000,12.58485791015625,-1.9658195957303046,-1.5145996765524148,0.12598090690560637
