time,seconds_elapsed,z,y,x
1790963454080512800,0.0705126953125,6.740126586151122,7.325508892059326,-0.6349123527526855
1790963454090592800,0.0805927734375,6.883329772949218,7.568520360565185,-0.4542997650146484
1790963454100673000,0.090673095703125,6.898443170928955,7.720552165985107,-0.5020341606140136
1790963454110752800,0.100752685546875,6.851905876159668,7.719205427551269,-0.8043021202087401
1790963454120833000,0.1108330078125,6.619817952728271,7.695562686157226,-0.9433154541015625
1790963454130912800,0.120912841796875,6.404040528106689,7.698256163024902,-0.9285013313293456
1790963454140992800,0.13099267578125,6.3621419990539545,7.492953370666504,-1.0372878692626952
1790963454151073000,0.141072998046875,6.592434271240234,7.314435709381103,-1.241692835998535
1790963454161152800,0.15115283203125,6.732943981170654,7.182156067657471,-1.4603133750915527
1790963454171233000,0.16123291015625,6.764966428375244,7.248744801330566,-1.5846622238159178
1790963454181312800,0.171312744140625,6.694187841796874,7.336881349945068,-1.717989328765869
1790963454191393000,0.18139306640625,6.378452497863769,7.3861121215820305,-1.7899650161743164
1790963454201472800,0.19147265625,6.0802247535705565,7.4220251464843745,-1.7342998275756836
1790963454211552800,0.201552734375,5.934028814697265,7.516147199249267,-1.556380716705322
1790963454221633000,0.211633056640625,5.8822542037963865,7.59725078048706,-1.3769652297973631
1790963454231712800,0.221712646484375,5.920112517547607,7.483526201629639,-1.229572190093994
1790963454241793000,0.23179296875,5.827636478424072,7.456741070556641,-1.1361983253479002
1790963454251872800,0.241872802734375,5.697152487945556,7.523629079437256,-1.0842740768432617
1790963454261952800,0.251952880859375,5.560533355712891,7.559991017150878,-1.1752537399291991
1790963454272031700,0.26203173828125,5.519083739471435,7.542483417510986,-1.2159551681518554
1790963454282112000,0.272112060546875,5.741295581054687,7.435791806030273,-1.06616792678833
1790963454292192000,0.28219189453125,6.083217505645751,7.334936061096191,-0.7882908966064452
1790963454302271700,0.292271728515625,6.444143405914306,7.27163935470581,-0.619948592376709
1790963454312352000,0.30235205078125,6.560711099243163,7.212233226013183,-0.509516040802002
1790963454322431700,0.312431640625,6.33954672088623,7.1312792823791495,-0.41404724960327144
1790963454332512000,0.322511962890625,6.018574060821533,7.302763976287841,-0.4037222549438476
1790963454342591700,0.332591796875,5.780201358032226,7.645733364105224,-0.3221697608947754
1790963454352671700,0.342671630859375,5.829731404876709,8.062174815368651,-0.01915361328125
1790963454362752000,0.352751953125,6.145167473602295,8.183530912017822,0.31917700881958005
1790963454372831700,0.362831787109375,6.631340048217773,8.041973738861083,0.49380409240722656
1790963454382912000,0.372912109375,6.834398276519775,7.6485764785766595,0.47719431838989257
1790963454392991700,0.38299169921875,6.795791774749755,7.350498371887206,0.43798926620483397
1790963454403072000,0.393072021484375,6.440701741027832,7.350498371887206,0.32097266006469727
1790963454413152000,0.403152099609375,6.123619658660888,7.478737798309326,0.0809539436340332
1790963454423231700,0.413231689453125,6.110900462341308,7.694664860534668,0.2472013214111328
1790963454433312000,0.42331201171875,7.3802762550354,7.283909638214111,0.8150760276794433
1790963454443391700,0.433391845703125,7.1954738143920896,7.318176649475097,0.24705168380737302
1790963454453472000,0.443471923828125,6.241085177612304,7.409156312561035,0.9841665199279784
1790963454463551700,0.4535517578125,5.66333438949585,7.100603573608398,1.1409867286682127
1790963454473631700,0.4636318359375,5.511152946472167,7.011419561767577,1.0420762725830077
1790963454483712000,0.4737119140625,5.647023890686035,7.307552379608154,0.7576151878356933
1790963454493791000,0.483791015625,5.40745408706665,7.922263655853271,-0.38367081604003905
1790963454503871000,0.49387109375,4.380042299652099,8.800037839508056,-2.4091654205322266
1790963454513950700,0.50395068359375,3.5104981842041014,9.574113163757323,-3.7790976829528806
1790963454524031000,0.514031005859375,3.091363256072998,9.497199435424804,-3.2746693206787105
1790963454534110700,0.52411083984375,2.972550998687744,8.277353689575195,-1.7067665084838866
1790963454544191000,0.53419091796875,3.171868286895752,7.728632596588135,-0.8810662109374999
1790963454554271000,0.54427099609375,3.6514568069458004,8.074145823669433,-0.6998550727844238
1790963454564350700,0.554350830078125,4.354454269409179,8.451980773162841,-0.6967126831054687
1790963454574431000,0.564430908203125,4.2600329414367675,8.339453295135497,-0.7921814743041992
1790963454584510700,0.5745107421875,3.6400843490600585,8.170362802886963,-0.6964134078979491
1790963454594591000,0.584591064453125,3.13460852355957,8.086715382385254,-0.8288426872253417
1790963454604670700,0.594670654296875,2.7603648765563964,8.061276989746093,-1.1162965240478515
1790963454614751000,0.6047509765625,2.484732410430908,8.106018633270264,-1.1266215187072752
1790963454624831000,0.6148310546875,2.1984756744384764,8.189516416168212,-1.031003089904785
1790963454634910700,0.62491064453125,1.7527052528381346,8.218246836090087,-1.112106671142578
1790963454644991000,0.634990966796875,1.3301286598205566,8.117840003967284,-1.427542739868164
1790963454655070700,0.64507080078125,0.8334814529418945,8.084321180725096,-1.6888099960327148
1790963454665151000,0.65515087890625,0.33354221878051754,8.278251515197754,-1.707065783691406
1790963454675231000,0.66523095703125,0.12419921112060546,8.531288703155518,-1.5689502754211424
1790963454685310700,0.675310791015625,0.0565630142211914,8.956409135437012,-1.3060370056152344
1790963454695391000,0.685390869140625,-0.2699462371826172,9.390507823944091,-1.141585279083252
1790963454705470700,0.695470703125,0.018255787658691406,8.803180229187012,-1.9391537071228027
1790963454715551000,0.705551025390625,0.2871545616149902,8.603713303375244,-2.134879692840576
1790963454725630700,0.715630615234375,0.04967968444824218,8.42100578918457,-2.1350293304443357
1790963454735711000,0.7257109375,-0.6054337448120117,8.276306226348876,-1.968781952667236
1790963454745789700,0.735789794921875,-1.0127473022460938,8.405742753601073,-1.5402198554992674
1790963454755870000,0.745869873046875,-1.054047280883789,8.454075699615478,-1.3836989219665528
1790963454765950000,0.755949951171875,-0.6429927833557129,8.576928172302246,-1.3423989433288575
1790963454776030000,0.766030029296875,0.08768763580322265,8.793304147338867,-1.4041992736816404
1790963454786110000,0.77610986328125,0.7495347572326659,9.083002548217772,-1.5566799919128418
1790963454796189700,0.786189697265625,1.4208090476989745,9.37195276107788,-1.7495628631591795
1790963454806269200,0.796269287109375,1.9415479087829588,9.765649296569825,-1.540519130706787
1790963454816349000,0.806348876953125,1.881393592071533,10.124330632781982,-1.2509703674316406
1790963454826429200,0.81642919921875,1.3248913436889647,10.5077021736145,-0.9874585472106933
1790963454836509200,0.82650927734375,0.5819406410217285,10.769268704986573,-0.7591115638732909
1790963454846589200,0.836589111328125,-0.04848258361816406,11.023652631378173,-0.8243535591125488
1790963454856669200,0.846669189453125,-0.30361469802856444,11.483339350128173,-0.6808510971069336
1790963454866749000,0.8567490234375,-0.49634793167114255,11.296441983032226,-1.2834417274475096
1790963454876829200,0.8668291015625,-0.33473931961059566,10.79590419845581,-1.9164087913513181
1790963454886909000,0.876908935546875,-0.04414309310913086,10.514585503387451,-1.5898995399475098
1790963454896989200,0.8869892578125,0.10953472595214843,10.470143135070801,-1.1209352897644043
1790963454907069200,0.897069091796875,0.2284966209411621,10.45772321395874,-0.6863876884460449
1790963454917149200,0.907149169921875,1.005564697265625,10.535085855102539,-0.48452656097412106
1790963454927229200,0.917229248046875,1.704073031616211,10.560524247741698,-0.1571194839477539
1790963454937309000,0.927308837890625,1.9048866958618162,10.609605381774902,-0.20919337005615232
1790963454947389200,0.93738916015625,1.856553749847412,10.638186164093018,-0.4991910461425781
1790963454957469200,0.94746923828125,1.86433490524292,10.557381858062744,-0.9660603698730468
1790963454967549200,0.957549072265625,1.989282304382324,10.603021327209472,-1.1891700370788574
1790963454977629200,0.967629150390625,2.2780828796386716,10.52206738357544,-1.1722609878540038
1790963454987709000,0.977708984375,2.6235961067199707,10.295067138671874,-1.2351087814331054
1790963454997789200,0.9877890625,2.618059515380859,10.219350511169432,-1.2406453727722166
1790963455007869200,0.997869140625,2.3900118072509766,10.207080227661132,-1.2713210815429687
1790963455017949200,1.00794921875,2.067842046356201,10.10607484512329,-1.2677297790527342
1790963455028029200,1.018029296875,1.8936638755798338,9.957634342193604,-1.153556287384033
1790963455038108200,1.028108154296875,1.593490842437744,9.760262342834473,-0.8921393936157226
1790963455048188200,1.038188232421875,1.3305775726318358,9.37838717803955,-0.2727893516540527
1790963455058268200,1.04826806640625,1.0990881996154784,8.862586357879637,0.1258452247619629
1790963455068348200,1.05834814453125,0.7347206344604492,8.54939485321045,0.15158289260864258
1790963455078428000,1.068427978515625,0.485873299407959,8.230966032409668,-0.3746925598144531
1790963455088508200,1.078508056640625,0.7037456504821777,7.952340814208984,-0.8179191421508789
1790963455098588200,1.088588134765625,1.6722002220153807,8.112901963043212,-0.8304887008666991
1790963455108668200,1.098668212890625,2.6862942626953124,8.526201024627685,-1.000477018737793
1790963455118748200,1.108748046875,3.186981684875488,8.887875112915038,-1.1948562660217283
1790963455128828200,1.118828125,3.035099517059326,8.96344210281372,-1.2318167541503906
1790963455138908200,1.128908203125,2.4545056144714352,8.87380917816162,-1.1939584403991699
1790963455148988000,1.13898779296875,1.6174328590393066,8.769811043548584,-1.1207856521606445
1790963455159068200,1.149068115234375,1.0594342346191405,8.525901749420166,-1.0181342559814452
1790963455169148200,1.159148193359375,1.0160393295288086,8.358606908416748,-0.7604583023071289
1790963455179228200,1.169228271484375,1.2229881355285643,8.275857313537598,-0.6631938598632812
1790963455189308200,1.17930810546875,1.6647183418273925,8.404246377563476,-0.5660790550231933
1790963455199388000,1.189387939453125,1.9831471626281738,8.481609018707275,-0.723946726989746
1790963455209468200,1.19946826171875,1.974019268798828,8.49762024230957,-1.0670657524108886
1790963455219548200,1.209548095703125,1.732055263519287,8.671648775482177,-0.799962629699707
1790963455229628200,1.219628173828125,1.617133583831787,8.75335090713501,-0.9651625442504882
1790963455239708200,1.229708251953125,1.4413093994140624,9.015216713714599,-0.8574234695434569
1790963455249788200,1.2397880859375,1.3944728294372557,9.00773483352661,-0.6114192489624023
1790963455259868200,1.2498681640625,1.3492822731018066,8.802282403564453,-0.4074631950378418
1790963455269948000,1.259947998046875,1.149815347290039,8.546102825927735,-0.35883097381591794
1790963455280028200,1.270028076171875,1.0672153900146484,8.728361427307128,-0.14559738845825196
1790963455290108200,1.280108154296875,0.969801309967041,9.603741409301758,0.5283703788757323
1790963455300188200,1.290188232421875,0.3064578125,10.633846673583983,0.9998784683227538
1790963455310268200,1.30026806640625,-0.021697452545166016,10.943596513366698,0.8487444885253905
1790963455320348000,1.310347900390625,0.19378069686889648,10.807725569152831,0.18914193115234373
1790963455330428200,1.32042822265625,-0.03396773605346679,11.125256564331053,0.4348468765258789
1790963455340508200,1.330508056640625,-0.4011784156799316,11.966519172668455,0.9783306533813476
1790963455350587100,1.340587158203125,-0.7356184600830078,12.662184392547607,0.8658031753540039
1790963455360667100,1.350667236328125,-0.9771335525512694,13.331363756561279,1.045667575073242
1790963455370747100,1.3607470703125,-0.7583633758544921,13.271059802246093,0.8379705810546875
1790963455380827100,1.3708271484375,0.008080430603027343,12.70453183441162,0.6004957038879394
1790963455390907100,1.3809072265625,1.0235212097167967,12.041786887359619,0.33952772293090816
1790963455400987100,1.390987060546875,1.7776947326660155,11.588983498382568,0.29343934097290036
1790963455411067100,1.401067138671875,1.8231845642089843,11.188104357910156,0.5790975265502929
1790963455421147100,1.411147216796875,1.6949451377868652,10.643423480224609,0.5981015022277831
1790963455431227100,1.42122705078125,1.37262573928833,10.401160199737548,0.8873509902954101
1790963455441307100,1.43130712890625,0.6863876884460449,10.482263780975341,0.9712976860046386
1790963455451387100,1.44138720703125,0.21083938369750976,10.644470943450926,0.7465420051574707
1790963455461467100,1.451467041015625,0.10729016189575195,10.622474215698242,0.388159944152832
1790963455471547100,1.461547119140625,0.2715922508239746,10.509946737670898,0.3790320503234863
1790963455481627100,1.471627197265625,0.3705027069091797,10.372130504608153,0.3865139305114746
1790963455491707100,1.48170703125,0.3227683113098144,10.17026937713623,0.24316110610961914
1790963455501787100,1.491787109375,0.3920505218505859,10.043526326751708,0.14380173721313474
1790963455511867100,1.5018671875,0.5187935722351074,10.206481677246094,0.2246060432434082
1790963455521947100,1.511947021484375,0.5497685562133788,10.171316840362548,0.2002151138305664
1790963455532027000,1.52202685546875,0.7383119369506835,10.12492918319702,0.2814683326721191
1790963455542107100,1.532107177734375,1.2147580673217773,10.051157844543457,0.40671500701904295
1790963455552187100,1.542187255859375,1.4995184272766113,10.034996983337402,0.28086978225708004
1790963455562267100,1.55226708984375,1.3452420578002928,10.211718993377685,0.13602058181762694
1790963455572347100,1.56234716796875,1.1131541343688964,10.300154817199706,-0.1188122573852539
1790963455582427100,1.57242724609375,1.050156703186035,10.188076251983642,-0.42437224426269526
1790963455592507100,1.582507080078125,1.4627075767517088,9.87009634399414,-0.629525399017334
1790963455602587100,1.592587158203125,2.0335750350952146,9.4618849609375,-0.8683470146179199
1790963455612667100,1.602667236328125,1.9786580345153808,9.137620273590088,-0.8360252922058105
1790963455622747100,1.6127470703125,1.8279729675292968,9.431508527374268,-0.7231985389709472
1790963455632827100,1.6228271484375,1.7099088981628416,9.642497548675536,-0.8482955757141113
1790963455642907100,1.6329072265625,2.0151696098327636,9.626785600280762,-0.8372223930358886
1790963455652987100,1.642987060546875,2.2840683837890623,9.668085578918456,-0.7897872726440429
1790963455663067100,1.653067138671875,1.7558476425170897,9.85782606048584,-0.9428665412902831
1790963455673147100,1.663147216796875,1.1347019493103028,9.925013344573975,-1.0099041877746582
1790963455683227100,1.67322705078125,0.8608651344299316,9.717615625762939,-0.9313444458007812
1790963455693306000,1.68330615234375,0.7606079399108886,9.36521906890869,-0.6923731925964355
1790963455703386000,1.69338623046875,0.958279214477539,8.83639977722168,-0.4492120864868164
1790963455713466000,1.703466064453125,0.8671499137878418,8.253561310577393,-0.26740239791870113
1790963455723546000,1.713546142578125,0.3003226707458496,7.792677490997314,0.12868833923339842
1790963455733626000,1.723626220703125,-0.25034371109008785,7.441328397369384,0.5684732566833496
1790963455743706000,1.7337060546875,-0.4116530479431152,7.13771369934082,0.7211036125183105
1790963455753786000,1.7437861328125,-0.1997662010192871,7.01620796508789,0.5870283195495605
1790963455763866000,1.7538662109375,-0.051774610900878905,7.017105790710449,0.5805939025878906
1790963455773946000,1.763946044921875,0.35359365768432616,7.100154660797119,0.6706757400512695
1790963455784026000,1.774026123046875,0.9097966308593749,7.277924134063721,0.8221089950561523
1790963455794106000,1.784106201171875,0.9132382957458496,7.656058358764648,0.7848492317199707
1790963455804186400,1.794186279296875,0.6148609138488769,8.298901504516602,0.6922235549926757
1790963455814266400,1.804266357421875,0.234931037902832,9.115324270629882,0.6937199310302734
1790963455824346400,1.814346435546875,0.01915361328125,9.88281554031372,0.6296750366210937
1790963455834426400,1.82442626953125,0.029328970336914062,10.68741693572998,0.8262988479614257
1790963455844506600,1.834506591796875,0.004938040924072265,11.53571251144409,1.200841770172119
1790963455854586400,1.84458642578125,0.022445640563964843,12.166435011291503,1.5249568199157715
1790963455864666400,1.854666259765625,-0.1444002876281738,12.67924307937622,1.751208876800537
1790963455874746400,1.864746337890625,-0.8327332649230956,12.965200540161131,1.9201497314453124
1790963455884826400,1.874826416015625,-1.7124527374267577,12.910283539581298,2.261473105621338
1790963455894906600,1.88490673828125,-2.401833177947998,12.791920195007323,2.2245126174926755
1790963455904986400,1.894986328125,-2.396146949005127,13.257143505096435,1.885882720184326
1790963455915066400,1.90506640625,-1.9415479087829588,13.17005441970825,1.6763900749206542
1790963455925146400,1.915146484375,-1.088463929748535,12.379818234252928,1.684171230316162
1790963455935226400,1.925226318359375,-0.11941080780029296,11.165509079742431,1.4688427185058592
1790963455945306400,1.935306396484375,0.4267664459228515,9.753379013061522,1.294664547729492
1790963455955386400,1.945386474609375,0.9804255798339843,8.770259956359864,0.848445213317871
1790963455965466600,1.955466552734375,1.6335937202453612,8.425494917297362,0.4978443077087402
1790963455975546400,1.96554638671875,1.9418471839904785,8.647108208465575,0.7015010864257812
1790963455985626400,1.97562646484375,1.6710031211853027,9.030330111694335,1.0821791503906248
1790963455995706400,1.985706298828125,1.1584943283081055,9.157372437286377,1.2669815910339355
1790963456005786400,1.995786376953125,0.9635165306091308,9.422230995941161,1.1921627891540527
1790963456015866600,2.00586669921875,1.1541548377990722,9.791686239624022,0.9669581954956055
1790963456025946400,2.0159462890625,1.4257470886230468,10.263792879486083,0.8800187477111816
1790963456036026400,2.0260263671875,1.5885528015136718,10.430638807678221,0.6184522163391113
1790963456046106400,2.0361064453125,1.3871405868530273,9.994894105529784,0.4608838195800781
1790963456056186400,2.046186279296875,0.9356839363098144,8.922890312194824,0.28490999755859375
1790963456066266400,2.056266357421875,0.7160159339904785,8.131157750701904,-0.13572130661010742
1790963456076346400,2.066346435546875,0.9834183319091796,8.145522960662841,-0.09786299285888671
1790963456086426600,2.076426513671875,1.5511434005737303,9.02150149307251,0.017357962036132813
1790963456096506400,2.08650634765625,1.9385551567077635,9.904662630462646,0.014215572357177733
1790963456106586400,2.09658642578125,1.8959084396362305,10.486303996276854,-0.04279635467529297
1790963456116666400,2.106666259765625,1.4146739059448241,11.27489416809082,-0.08514379653930663
1790963456126745300,2.116745361328125,0.6438906089782714,11.547982794952391,0.11477204208374023
1790963456136825300,2.126825439453125,-0.11626841812133788,10.869525899505614,0.05880757827758789
1790963456146905300,2.1369052734375,-0.5811924530029297,9.680655137634277,0.16205752487182618
1790963456156985600,2.146985595703125,-0.3833715408325195,8.06397046661377,0.9979331794738769
1790963456167065300,2.1570654296875,0.6841431243896484,8.31850403060913,0.5502174690246582
1790963456177145600,2.1671455078125,1.4932336479187012,10.027964015960693,-0.00014963760375976562
1790963456187225300,2.177225341796875,1.5242086318969725,11.469572690582275,0.31573534393310543
1790963456197305300,2.187305419921875,0.39983167724609375,11.808950775909423,0.7630021415710448
1790963456207385300,2.19738525390625,-0.3447650390625,11.269507214355468,1.5400702178955077
1790963456217465300,2.20746533203125,-0.31393969268798827,10.177601619720459,1.06616792678833
1790963456227545600,2.217545654296875,0.1479915901184082,9.208548497772217,0.7956231391906737
1790963456237625300,2.227625244140625,0.5195417602539062,8.896554093933105,0.7291840431213379
1790963456247705300,2.237705322265625,0.45055882492065424,8.654739726257324,0.7968202400207519
1790963456257785300,2.247785400390625,0.4462193344116211,8.677933554840088,0.7993640792846679
1790963456267865300,2.257865234375,0.5970540390014648,9.657760584259032,0.39743747558593745
1790963456277945600,2.267945556640625,1.403301448059082,10.39322940673828,0.6848913124084473
1790963456288025300,2.278025390625,1.2214917594909667,10.45054060897827,0.2792237686157226
1790963456298105600,2.288105712890625,-0.16789339141845702,9.868151055145264,0.11716624374389648
1790963456308185300,2.298185302734375,-1.0893617553710937,9.24984847640991,0.20979192047119138
1790963456318265300,2.308265380859375,-0.6967126831054687,8.999205490112304,-0.11806406936645507
1790963456328345300,2.318345458984375,-0.086191259765625,9.266308612823487,-1.268029054260254
1790963456338425300,2.32842529296875,0.3821744400024414,9.316437210083008,-1.6497545814514158
1790963456348505600,2.338505615234375,0.9090484428405761,9.695918173217773,-1.4194623092651366
1790963456358585300,2.34858544921875,0.9766846397399902,9.92725790863037,-0.628178660583496
1790963456368665300,2.358665283203125,1.3242927932739257,9.766397484588623,0.6889315277099609
1790963456378745300,2.368745361328125,1.6973393394470213,9.64668740158081,0.7076362281799315
1790963456388825300,2.378825439453125,1.159392153930664,9.456498007202148,0.14499883804321287
1790963456398905600,2.388905517578125,0.7378630241394043,9.672724344635009,-0.12375029830932617
1790963456408985300,2.3989853515625,0.5370493598937988,9.784952547454834,-0.10983400115966796
1790963456419065600,2.409065673828125,1.0212766456604003,10.08123500289917,-0.2838625343322754
1790963456429145300,2.419145263671875,1.432031867980957,10.337115305328368,-0.19318214645385742
1790963456439225300,2.429225341796875,1.1891700370788574,10.670507886505126,0.5717652839660644
1790963456449305600,2.4393056640625,0.8794201972961425,10.341454795837402,0.8577227447509765
1790963456459385300,2.44938525390625,0.8099883491516113,9.849895267486572,1.2014403205871582
1790963456469465600,2.459465576171875,0.6980594215393066,9.904512992858885,1.5349825393676757
1790963456479545300,2.46954541015625,0.7396586753845215,9.381828842926025,1.1445780311584473
1790963456489625300,2.479625244140625,0.7293336807250976,9.256731806182861,1.1073182678222655
1790963456499705300,2.489705322265625,1.0155904167175291,9.245957898712158,0.6555623420715332
1790963456509785300,2.499785400390625,1.2599486236572266,10.024671988677978,-0.1710357810974121
1790963456519865600,2.509865478515625,0.9558850128173828,10.590002855682373,0.36795886764526364
1790963456529945300,2.5199453125,0.3555389465332031,11.040860955810546,0.1801636749267578
1790963456540025600,2.530025634765625,-0.13781623306274413,10.832116498565673,0.04938040924072265
1790963456550105300,2.540105224609375,-0.7866448829650878,10.319308430480957,0.09083002548217772
1790963456560185300,2.550185302734375,-0.5527613082885742,9.503035301971435,0.09681552963256836
1790963456570265600,2.560265625,0.488417138671875,9.09781667098999,-0.1767220100402832
1790963456580345300,2.570345458984375,1.5849614990234373,9.091831166839599,-0.16086042404174802
1790963456590425600,2.580425537109375,2.071134073638916,9.33364553451538,0.05162497329711914
1790963456600505300,2.59050537109375,1.5688006378173827,9.5384994140625,0.6046855567932129
1790963456610585300,2.60058544921875,1.1001356628417969,10.046369441223144,0.8342296409606933
1790963456620665300,2.610665283203125,1.4263456390380858,9.542389991760253,0.24839842224121092
1790963456630745300,2.620745361328125,0.8387187690734863,9.32810894317627,0.48123453369140623
1790963456640825600,2.63082568359375,0.19018939437866209,8.93112038040161,0.850989052581787
1790963456650905300,2.6409052734375,-0.02633621826171875,9.118915573120116,0.21921908950805663
1790963456660985300,2.6509853515625,0.06449380722045898,8.98828194503784,0.20096330184936523
1790963456671065300,2.6610654296875,-0.2952349922180176,10.143783521270752,0.4722562774658203
1790963456681145300,2.671145263671875,-0.5776011505126952,11.77318738861084,0.5301660301208496
1790963456691225600,2.6812255859375,-1.1411363662719727,12.393734531402588,0.7278373046875
1790963456701304300,2.69130419921875,-0.9126397453308105,11.215338401794433,1.1869254730224608
1790963456711385600,2.701385498046875,-0.006733692169189453,10.133159251403807,0.8877999031066894
1790963456721464300,2.71146435546875,0.3526958320617676,9.87623148574829,0.7055413017272949
1790963456731544600,2.721544677734375,0.8375216682434081,9.424774835205078,1.0708066925048827
1790963456741624300,2.731624267578125,1.348384447479248,8.770259956359864,0.5981015022277831
1790963456751704600,2.74170458984375,1.336862351989746,9.330503144836426,0.2522889999389648
1790963456761784300,2.751784423828125,0.9943418769836425,10.562170261383056,0.13631985702514648
1790963456771864300,2.7618642578125,0.45968671875,10.426748229980468,-0.39848493881225583
1790963456781944600,2.771944580078125,-0.15472528228759766,10.588207204437255,-0.7205050621032715
1790963456792024300,2.7820244140625,-0.7522282341003418,10.420463450622558,-0.32830490264892576
1790963456802104300,2.792104248046875,-0.7338228088378905,10.245088179016113,0.5068225639343261
1790963456812184000,2.80218408203125,-0.39160160903930663,9.86366192703247,0.8514379653930664
1790963456822264300,2.812264404296875,0.43933600463867184,9.438391857147217,0.4885667762756347
1790963456832344000,2.822343994140625,0.7677905448913573,10.044424152374267,1.1314099220275877
1790963456842424000,2.832424072265625,1.1935095275878906,10.466252557373046,1.7374422172546387
1790963456852504300,2.84250439453125,2.1728876441955567,10.98175410232544,2.119018106842041
1790963456862584000,2.852583984375,1.0577882209777831,11.125705477142333,2.485480598449707
1790963456872664300,2.862664306640625,-1.0986392868041992,11.171344946289063,1.992574331665039
1790963456882744000,2.872744140625,-1.9083283607482908,11.295394519805907,1.0803834991455077
1790963456892824000,2.882823974609375,-1.560869844818115,11.028889947509764,0.24660277099609373
1790963456902904300,2.892904296875,-0.7472901931762694,10.34923595123291,-0.23268647384643554
1790963456912984000,2.902984130859375,0.02454056701660156,9.930250660705566,-0.11911153259277343
1790963456923064300,2.913064208984375,0.11342530364990233,9.396194052886962,0.8002619049072265
1790963456933144000,2.92314404296875,0.28476035995483395,9.396194052886962,1.5062521194458007
1790963456943224000,2.93322412109375,0.8451531860351562,9.673472532653808,1.6736965980529783
1790963456953304000,2.943303955078125,0.6491279251098633,9.262866947937011,1.9610007972717285
1790963456963384000,2.953384033203125,0.5383960983276367,8.703072672271729,1.8927660499572754
1790963456973464300,2.96346435546875,0.8843582382202148,7.883058603668212,1.9954174461364744
1790963456983544000,2.9735439453125,0.6983586967468262,6.4190042884826655,2.9204771125793454
1790963456993624300,2.983624267578125,1.1475707832336426,5.080645560455322,3.6131495803833005
1790963457003704000,2.9937041015625,2.314744092559814,6.188861653900146,2.638110954284668
1790963457013784000,3.0037841796875,2.8993782104492185,7.652915969085693,2.5962124252319336
1790963457023864300,3.0138642578125,1.9794062225341795,9.765499658966064,3.0343513290405273
1790963457033944000,3.023944091796875,1.7603367706298827,11.988665538024902,2.2809259941101074
1790963457044024300,3.0340244140625,0.8219593574523926,13.077129467773437,1.1489175216674803
1790963457054104000,3.04410400390625,-0.8277952239990234,12.45613341217041,0.6733692169189452
1790963457064184000,3.05418408203125,-0.7701847465515136,10.132411063385009,0.6985083343505859
1790963457074264000,3.06426416015625,-0.263062907409668,8.213458432769775,-0.4101566719055176
1790963457084344000,3.074343994140625,-0.24555530776977538,6.9998974662780755,-0.5392939239501953
1790963457094424300,3.08442431640625,-1.2843395530700683,6.463596294403076,1.176001927947998
1790963457104504000,3.094504150390625,-1.7542016288757323,5.736806452941894,1.5578770927429197
1790963457114584300,3.104584228515625,-0.23358429946899412,4.659116430664063,0.7018003616333007
1790963457124664000,3.1146640625,0.23882161560058593,5.665578953552246,0.254084651184082
1790963457134744000,3.124744140625,1.2606968116760253,8.639327053070067,0.03800795135498047
1790963457144824300,3.13482421875,0.3290530906677246,11.504737527465819,0.0028431144714355467
1790963457154904000,3.144904052734375,-1.3617021942138672,13.025354856872557,0.9347861106872558
1790963457164984300,3.154984375,-1.4055460121154784,13.00500414276123,0.8354267417907715
1790963457175064000,3.16506396484375,-1.5055039314270018,13.2405337310791,1.1192892761230469
1790963457185144000,3.17514404296875,-1.7387889556884764,11.794136653137206,3.0400375579833985
1790963457195224300,3.185224365234375,-1.829768618774414,8.494627490234375,4.408323806762695
1790963457205304000,3.195303955078125,-1.4671967048645018,6.579565437316894,4.191947831726074
1790963457215384300,3.20538427734375,-1.024718310546875,7.521983065795898,2.833238389587402
1790963457225464000,3.215464111328125,-0.7324760704040527,10.55962642211914,1.3721768264770506
1790963457235544300,3.22554443359375,-0.8297405128479003,12.586767040252685,-0.0704793113708496
1790963457245624000,3.2356240234375,-0.7655459808349608,14.226645539855957,-1.0333972915649414
1790963457255704000,3.2457041015625,-0.6640916854858399,12.85776074066162,-0.4656722229003906
1790963457265784300,3.255784423828125,-0.42497079467773435,10.167126987457275,0.165349552154541
1790963457275864000,3.265864013671875,0.9961375282287597,9.337236837005614,0.06808510971069336
1790963457285944300,3.2759443359375,1.8893243850708006,9.388562535095215,0.04908113403320312
1790963457296024000,3.286024169921875,1.7821838607788085,9.347112918853759,0.23792378997802732
1790963457306104000,3.29610400390625,1.1161468864440918,9.63396820526123,0.16265607528686524
1790963457316184300,3.306184326171875,0.31004911499023435,9.973047015380859,0.5337573326110839
1790963457326264000,3.31626416015625,0.3416226493835449,10.396521434020995,0.26007015533447264
1790963457336344300,3.32634423828125,1.3153145370483397,10.563516999816894,0.27742811737060546
1790963457346424000,3.336424072265625,1.160140341949463,10.55992569732666,0.9258078544616699
1790963457356504300,3.34650439453125,1.885882720184326,10.520421369934082,0.7065887649536132
1790963457366584000,3.356583984375,2.833238389587402,10.50156703186035,1.4751274978637694
1790963457376664000,3.3666640625,2.9396307258605954,10.437073224639892,2.2565350646972653
1790963457386744300,3.376744384765625,2.392854921722412,9.203610456848144,2.9357401481628416
1790963457396824000,3.386823974609375,1.0116998390197753,8.055740398406982,3.1835400199890134
1790963457406904300,3.396904296875,-0.24301146850585936,9.235034353637694,0.5789478889465332
1790963457416984000,3.406984130859375,-1.0531494552612304,9.726294606781005,-0.9130886581420898
1790963457427064000,3.41706396484375,-1.5055039314270018,9.32751039276123,-0.8114847251892089
1790963457437144300,3.427144287109375,-1.9252374099731444,8.986935206604004,-0.15173253021240232
1790963457447224000,3.43722412109375,-1.5141829124450683,9.695319622802733,0.6212953308105469
1790963457457304300,3.44730419921875,-0.8391676818847655,9.943867682647705,1.1541548377990722
1790963457467384000,3.457384033203125,-0.1393126091003418,9.646088851165771,1.0327987411499022
1790963457477464300,3.46746435546875,0.6636427726745605,9.362525592041015,0.7757213378906249
1790963457487544000,3.4775439453125,1.1991957565307616,9.415796578979492,0.9274538681030273
1790963457497624000,3.4876240234375,1.424250712585449,9.6411508102417,1.279401512145996
1790963457507704300,3.497704345703125,1.4763245986938476,9.898377851104735,1.821538550567627
1790963457517784000,3.5077841796875,1.2802993377685545,9.981725996398925,2.1197662948608396
1790963457527864300,3.5178642578125,0.8060977714538574,9.941772756195068,1.986289552307129
1790963457537944000,3.527944091796875,0.2668038475036621,10.078541526031493,1.4634557647705078
1790963457548024000,3.538024169921875,0.08110358123779296,9.91543653793335,0.6730699417114258
1790963457558104300,3.548104248046875,0.3151367935180664,9.668085578918456,0.2991255699157715
1790963457568184000,3.55818408203125,0.7416039642333984,9.567828384399414,0.23702596435546874
1790963457578264300,3.568264404296875,1.2966098365783691,9.472658868408203,0.17791911087036133
1790963457588344000,3.578343994140625,1.7836802368164062,9.604489597320557,0.4724059150695801
1790963457598424300,3.58842431640625,2.0561703132629394,9.786000010681152,1.16193599319458
1790963457608504000,3.598504150390625,1.6469114669799805,9.915286900329589,1.4495394676208495
1790963457618584000,3.608583984375,0.9006687370300293,9.906907194519043,1.0330980163574217
1790963457628664300,3.618664306640625,0.46791678695678707,9.828646727752686,0.797418790435791
1790963457638744000,3.628744140625,0.019303250885009764,9.788094937133788,0.618003303527832
1790963457648824300,3.63882421875,-0.21772271347045896,9.737966339874268,0.3205237472534179
1790963457658904000,3.648904052734375,0.022744915771484374,9.732280110931397,0.14739303970336914
1790963457668984000,3.658984130859375,0.7662941688537597,9.735123225402832,0.11522095489501953
1790963457679064300,3.669064208984375,1.5269021087646484,9.686790279388427,0.32441432495117184
1790963457689144000,3.67914404296875,1.3298293846130371,9.641450085449218,0.7644985176086425
1790963457699224300,3.689224365234375,-0.1666962905883789,9.599401918792724,0.7674912696838379
1790963457709304000,3.699303955078125,-0.6655880615234374,9.9974379447937,0.45878889312744137
1790963457719384300,3.70938427734375,0.21862053909301757,9.827599264526366,0.49634793167114255
1790963457729464000,3.719464111328125,0.6374561920166015,9.72315221710205,0.8007108177185058
1790963457739544000,3.7295439453125,0.39923312683105466,9.923516968536376,0.9186252494812012
1790963457749624300,3.739624267578125,-0.19422960968017577,9.897928938293456,0.43993455505371093
1790963457759704000,3.7497041015625,-0.206200617980957,9.622895022583007,-0.23403321228027343
1790963457769784300,3.759784423828125,1.2617442749023438,9.657910221862792,0.12988544006347655
1790963457779864000,3.769864013671875,3.2179566688537595,9.686790279388427,0.5909188972473144
1790963457789944000,3.779944091796875,3.852719384002685,9.797522106170653,0.849791951751709
1790963457800024300,3.7900244140625,3.069516165924072,10.046070166015625,1.143380930328369
1790963457810104800,3.800104736328125,1.6935983993530273,9.969306075286864,0.7146691955566405
1790963457820184800,3.810184814453125,-0.0796072052001953,9.88895068206787,0.36481647796630856
1790963457830264800,3.820264892578125,-1.5758336051940918,9.556007013702391,0.828693049621582
1790963457840344800,3.8303447265625,-1.448641641998291,9.6779616607666,1.4564227973937987
1790963457850424800,3.8404248046875,-0.4752490295410156,10.053103133392334,1.5324387001037596
1790963457860504800,3.8505048828125,-0.3854664672851562,10.181641835021972,1.6795324645996093
1790963457870584800,3.860584716796875,-0.11641805572509765,10.142287145233153,1.4850035797119139
1790963457880664800,3.870664794921875,0.17163433151245117,9.93399160079956,1.2020388710021972
1790963457890744600,3.88074462890625,0.15113397979736326,9.41639512939453,1.5219640678405761
1790963457900824800,3.890824951171875,0.4082113830566406,9.335141910552977,2.037764888000488
1790963457910904800,3.90090478515625,0.8515876029968261,10.357017106628417,2.4537574264526367
1790963457920984800,3.91098486328125,1.2937667221069336,10.835558163452149,2.046294231414795
1790963457931064800,3.92106494140625,1.7311574378967285,10.307487059783934,0.6335656143188476
1790963457941144800,3.931144775390625,1.9520225410461425,9.38497123260498,-0.9020154754638672
1790963457951224800,3.941224853515625,1.9648913749694823,8.394370295715332,-2.836680054473877
1790963457961304800,3.951304931640625,1.8059762397766113,7.192929975128173,-5.063287598419189
1790963457971384800,3.961384765625,0.5799953521728515,8.672995513916016,-3.08358210067749
1790963457981464800,3.97146484375,1.0351929428100586,10.679935055541991,0.8913912055969238
1790963457991544800,3.981544921875,1.529745223236084,10.306738871765136,0.48123453369140623
1790963458001621800,3.991621826171875,1.7287632362365721,9.982474184417724,-0.6036380935668945
1790963458011701800,4.00170166015625,1.4052467369079589,9.247154999542236,-0.9434650917053222
1790963458021781800,4.01178173828125,0.06584054565429687,10.019733947753906,-2.7109844673156736
1790963458031861800,4.02186181640625,-0.5023334358215332,10.187776976776123,-2.5559599098205563
1790963458041941800,4.031941650390625,0.45295302658081055,8.699331732177734,-2.3849241287231444
1790963458052021800,4.042021728515625,1.243039574432373,8.888772938537597,-1.2210428466796874
1790963458062101800,4.052101806640625,0.6308721374511719,9.311349531555175,-1.308131932067871
1790963458072181800,4.062181640625,0.35314474487304687,9.617657706451416,-1.2732663703918456
1790963458082261800,4.07226171875,0.690128628540039,9.888202494049072,-0.8795698348999023
1790963458092342000,4.082342041015625,0.9355342987060546,9.97259810256958,-0.7580641006469726
1790963458102421800,4.092421875,1.0754454582214354,9.85752678527832,-0.4285620971679687
1790963458112501800,4.102501708984375,1.336263801574707,9.663147537994384,0.17657237243652343
1790963458122581800,4.112581787109375,1.380257257080078,9.58354033279419,-0.09831190567016601
1790963458132661800,4.122661865234375,1.2837410026550293,9.78166052017212,-0.7516296836853027
1790963458142741800,4.13274169921875,1.2473790649414063,9.778218855285644,-0.7733271362304687
1790963458152821800,4.14282177734375,1.4814122772216796,9.593566052246093,-0.6919242797851562
1790963458162901800,4.15290185546875,1.8656816436767576,9.64653776397705,-0.8366238426208495
1790963458172981800,4.162981689453125,1.6320973442077635,9.91468834991455,-0.7797615531921386
1790963458183061800,4.173061767578125,1.5095441467285156,9.950751012420653,-0.5991489654541016
1790963458193141800,4.183141845703125,1.3702315376281737,9.938780004119872,-0.7592612014770508
1790963458203221800,4.1932216796875,1.0525509048461914,9.55121861038208,-0.49455228042602534
1790963458213302000,4.203302001953125,1.4167688323974608,8.932616756439208,-0.7249941902160644
1790963458223381800,4.2133818359375,1.9164087913513181,8.719682446289061,-1.2556091331481933
1790963458233461800,4.223461669921875,2.1447557746887207,8.92438668823242,-1.1040262405395507
1790963458243541800,4.233541748046875,1.9569605819702147,9.215581465148926,-0.7306804191589356
1790963458253621800,4.243621826171875,1.5466542724609373,10.004620549774168,-0.6699275520324707
1790963458263701800,4.25370166015625,0.6977601463317871,10.800692601776122,-0.04938040924072265
1790963458273781800,4.26378173828125,0.5361515342712402,10.726621987915038,0.3085527389526367
1790963458283861800,4.27386181640625,0.9030629386901855,10.239401950073242,0.18285715179443357
1790963458293941800,4.283941650390625,0.7962216896057128,9.900173502349853,0.14215572357177733
1790963458304021800,4.294021728515625,0.3851671920776367,9.599701194000243,0.4460696968078613
1790963458314101800,4.304101806640625,-0.1039981346130371,9.368062183380127,0.8203133438110352
1790963458324181800,4.314181640625,0.045938744354248044,9.127594554138183,0.5946598373413086
1790963458334262000,4.324261962890625,1.0072107109069823,8.7455697517395,0.17058686828613281
1790963458344341800,4.334341796875,1.4565724349975586,8.648604584503174,-0.5562029731750487
1790963458354421800,4.344421875,1.8432360031127928,8.712649478912352,-1.0194809944152832
1790963458364501800,4.354501708984375,1.9633949989318846,8.911368216705322,-0.699106884765625
1790963458374581800,4.364581787109375,1.861641428375244,9.281422010803222,-0.5250783515930175
1790963458384661800,4.374661865234375,1.5260042831420897,9.758466691589355,-0.4332008628845215
1790963458394743800,4.384743896484375,1.0280103378295897,10.31751277923584,0.009576806640625
1790963458404823800,4.39482373046875,1.4264952766418457,10.229825143432617,-0.08858546142578125
1790963458414903800,4.40490380859375,1.903839232635498,9.898078575897216,-0.39010523300170896
1790963458424983800,4.41498388671875,1.8263269538879394,9.688885205841064,-0.48946460189819335
1790963458435063800,4.425063720703125,0.9708487731933593,9.650577979278564,-0.7139210075378417
1790963458445143800,4.435143798828125,0.010474632263183592,9.17368293609619,0.24794950942993163
1790963458455223800,4.445223876953125,-0.7983166160583496,8.369231178283691,1.3127706977844238
1790963458465303800,4.4553037109375,-0.9687538467407226,8.397512685394286,1.9572598571777342
1790963458475383800,4.4653837890625,-0.5617395645141601,8.581716575622558,2.150442003631592
1790963458485463800,4.4754638671875,-0.12075754623413085,9.005639907073974,2.2719477378845214
1790963458495543800,4.485543701171875,-0.2145803237915039,9.801711959075927,1.808071166229248
1790963458505623800,4.495623779296875,-0.636558366394043,10.517278980255126,1.3045406295776367
1790963458515703600,4.50570361328125,-1.1870751106262207,10.85261685028076,1.2496236289978027
1790963458525783800,4.51578369140625,-0.9072527915954589,10.563666637420654,1.3551181396484375
1790963458535863800,4.52586376953125,-1.024718310546875,10.24613564224243,1.661127039337158
1790963458545943800,4.53594384765625,-1.2099696640014648,10.346392836761474,2.1926398078918456
1790963458556023800,4.54602392578125,-1.1923124267578125,10.37422543106079,2.1570260581970215
1790963458566103800,4.556103759765625,-0.955136824798584,10.38080948562622,1.507299582672119
1790963458576183800,4.566183837890625,-0.750133307647705,9.772083713531494,0.6284779357910156
1790963458586263800,4.576263916015625,-0.07541735229492187,9.21857421722412,-0.027234043884277342
1790963458596343800,4.58634375,0.09591770401000976,9.062951109313964,-0.1614589744567871
1790963458606423800,4.596423828125,-0.2659060218811035,9.975590854644775,-0.008379705810546874
1790963458616503800,4.60650390625,-0.6827963859558105,10.029310754394531,0.4400841926574707
1790963458626583800,4.616583740234375,-1.0209773704528808,10.096946951293944,1.1496657096862792
1790963458636663600,4.62666357421875,-1.57044665145874,9.671227968597412,1.4468459907531737
1790963458646743800,4.636743896484375,-1.2394482719421387,9.341576327514648,1.1870751106262207
1790963458656823800,4.64682373046875,-0.36017771224975587,8.289175060272216,0.7849988693237304
1790963458666903800,4.65690380859375,0.7541735229492187,8.47278040008545,0.20006547622680662
1790963458676983800,4.66698388671875,0.9232640151977538,9.350105670928954,-0.047584757995605464
1790963458687063800,4.677063720703125,1.1982979309082031,10.387842453002929,-1.4770727867126463
1790963458697143800,4.687143798828125,1.0066121604919434,10.996717862701415,-1.8083704414367674
1790963458707223800,4.697223876953125,-0.37394437179565426,11.095478681182861,-0.9979331794738769
1790963458717303800,4.7073037109375,-0.6003460662841796,9.435548742675781,-0.4590881683349609
1790963458727383800,4.7173837890625,1.024718310546875,10.229825143432617,-2.586037068176269
1790963458737463800,4.7274638671875,2.2043115409851075,9.430311426544188,-2.0632032806396485
1790963458747543800,4.737543701171875,2.218527113342285,9.343521616363525,-0.9183259742736816
1790963458757623600,4.74762353515625,0.6500257507324219,10.443058728790282,-0.5205892234802246
1790963458767703800,4.757703857421875,-1.080233861541748,10.818349839019774,0.7133224571228027
1790963458777783800,4.76778369140625,-1.342698218536377,10.509797100067138,1.2012906829833985
1790963458787863800,4.77786376953125,-1.1757026527404784,9.742605105590819,0.7975684280395507
1790963458797943800,4.78794384765625,-1.3805565322875977,8.812607398223877,1.7030255683898925
1790963458808023300,4.798023193359375,0.481384171295166,7.546972545623779,1.356764153289795
1790963458818103300,4.808103271484375,2.3843255783081054,7.754220626831054,0.3298012786865234
1790963458828183300,4.818183349609375,2.3569418968200684,9.567379471588135,0.7202057868957519
1790963458838263300,4.82826318359375,1.2596493484497069,11.043404795074462,0.7052420265197753
1790963458848343000,4.838343017578125,0.07062894897460938,13.142521100616454,-0.02289455337524414
1790963458858423300,4.84842333984375,-1.0941501586914062,13.381193078613281,0.6429927833557129
1790963458868503300,4.85850341796875,-0.4777928688049316,11.228656148529051,-0.14484920043945312
1790963458878583300,4.868583251953125,0.06359598159790039,8.851962088012694,0.1897404815673828
1790963458888663300,4.878663330078125,-0.0665887336730957,7.544428706359863,1.7865233512878418
1790963458898743000,4.888742919921875,0.5325602317810059,7.86585027923584,1.324741706085205
1790963458908823300,4.8988232421875,0.8333318153381347,9.52563058013916,0.24555530776977538
1790963458918903300,4.9089033203125,0.7628525039672851,11.194089862060546,0.10714052429199218
1790963458928983300,4.9189833984375,1.7559972801208494,11.559055977630615,-0.3989338516235351
1790963458939063300,4.929063232421875,2.97509483795166,11.882572476959227,-1.5123872611999511
1790963458949143300,4.939143310546875,3.520523903656006,12.179603120422362,-1.642123063659668
1790963458959223300,4.949223388671875,2.910601030731201,10.819098027038574,-0.7125742691040039
1790963458969303000,4.959302978515625,1.4348749824523925,9.760711255645752,0.6206967803955078
1790963458979383300,4.96938330078125,0.1149216796875,9.627683425903319,1.4254478134155273
1790963458989463300,4.97946337890625,-0.3902548706054687,9.781510882568359,1.0945990715026854
1790963458999544000,4.9895439453125,0.22430676803588867,10.401908387756347,0.8604162216186523
1790963459009624300,4.999624267578125,0.8804676605224608,11.041010593414306,0.8494926765441894
1790963459019704300,5.009704345703125,1.7006313667297361,11.117325771331787,0.13676876983642577
1790963459029784300,5.019784423828125,3.0877719535827635,11.655572232055663,-0.9491513206481933
1790963459039864300,5.0298642578125,2.649034499359131,11.272499966430663,-0.8895955543518066
1790963459049944000,5.039944091796875,2.4052748428344723,11.747449720764159,0.2684498611450195
1790963459060024300,5.0500244140625,2.372504207611084,11.675174758148193,-0.24600422058105467
1790963459070104300,5.060104248046875,1.7009306419372558,10.995969674682616,-0.3193266464233398
1790963459080184300,5.070184326171875,0.6847416748046875,10.34250225906372,0.5345055206298828
1790963459090264300,5.080264404296875,-0.0522235237121582,9.998485408020018,-3.155707425689697
1790963459100344000,5.090343994140625,-0.7466916427612305,9.262268397521972,-3.8084266532897946
1790963459110424300,5.10042431640625,0.37618893585205077,8.340051845550537,-4.064456593322753
1790963459120504000,5.110504150390625,1.4074913009643555,6.932710182189941,-4.101267443847656
1790963459130584300,5.120584228515625,1.5952864936828612,5.80354482421875,-2.466326985168457
1790963459140664300,5.130664306640625,1.343895319366455,6.4661401336669915,0.22565350646972654
1790963459150744300,5.140744384765625,0.9132382957458496,8.137592167663573,2.773832260894775
1790963459160824300,5.15082421875,0.1949777976989746,9.380033191680907,4.401290839385986
1790963459170904000,5.160904052734375,-0.4403834678649902,9.701005851745604,4.7484500801086424
1790963459180984300,5.170984375,-1.173458088684082,9.441085334014891,3.9372646301269527
1790963459191064300,5.181064208984375,-1.8077718910217284,9.706841718292235,1.9346645790100097
1790963459201144300,5.191144287109375,-2.035221048736572,9.887753581237792,-0.15741875915527342
1790963459211224300,5.201224365234375,-1.8733131614685057,9.5507696975708,-0.7963713272094726
1790963459221304000,5.211303955078125,-1.031751277923584,9.540444702911376,0.17298106994628906
1790963459231384300,5.22138427734375,0.06628945846557617,9.8449572265625,0.9323919090270996
1790963459241464000,5.231464111328125,0.7838017684936524,9.763404732513427,0.7085340538024902
1790963459251544300,5.24154443359375,1.1584943283081055,9.789441675567627,0.4918588035583496
1790963459261624300,5.251624267578125,0.8090905235290526,9.882067352294921,0.36272155151367186
1790963459271704300,5.261704345703125,0.10220248336791991,9.877428586578368,0.3815758895874023
1790963459281784300,5.271784423828125,-0.23104046020507812,9.797821381378172,0.5488707305908203
1790963459291864000,5.281864013671875,-0.15786767196655271,9.687538467407226,0.5436334144592285
1790963459301944300,5.2919443359375,0.14903905334472656,9.682450788879393,0.5178957466125488
1790963459312024300,5.3020244140625,0.34656069030761716,9.762506906890868,0.5141548065185546
1790963459322104300,5.312104248046875,0.2823661582946777,9.875034384918212,0.5895721588134766
1790963459332184300,5.322184326171875,0.15786767196655271,9.873538008880615,0.6426935081481934
1790963459342264000,5.33226416015625,0.2079962692260742,9.803657247924804,0.6076783088684081
1790963459352344300,5.34234423828125,0.25528175201416015,9.747692784118652,0.5672761558532714
1790963459362424000,5.352424072265625,0.22056582794189453,9.69786346206665,0.5421370384216309
1790963459372504300,5.36250439453125,0.16699556579589842,9.748141696929931,0.5485714553833008
1790963459382584300,5.372584228515625,0.11192892761230468,9.79946739501953,0.5819406410217285
1790963459392664300,5.382664306640625,0.37873277511596676,9.859771349334716,0.9792284790039062
1790963459402744300,5.392744384765625,0.5351040710449219,9.767594585418701,1.389235513305664
1790963459412824000,5.402823974609375,0.08304887008666992,9.759364517211914,0.9054571403503417
1790963459422904300,5.412904296875,-0.19168577041625975,9.943269132232665,0.6727706665039062
1790963459432984300,5.422984375,0.10743979949951171,9.877428586578368,0.541388850402832
1790963459443064300,5.433064208984375,0.2141314109802246,9.675866734313963,0.9416694404602051
1790963459453144300,5.443144287109375,0.07691372833251953,9.778967043304442,1.049558152770996
1790963459463224000,5.45322412109375,0.08274959487915039,9.56318961868286,0.737414111328125
1790963459473304300,5.46330419921875,-0.08858546142578125,9.722254391479492,0.5672761558532714
1790963459483384000,5.473384033203125,0.19826982498168944,9.879373875427245,0.6172551155090331
1790963459493464300,5.48346435546875,0.6082768592834472,9.877727861785887,0.5864297691345215
1790963459503544300,5.49354443359375,0.5738602104187012,9.89583401184082,0.4887164138793945
1790963459513624000,5.5036240234375,0.234931037902832,9.772831901550292,0.37544074783325193
1790963459523704300,5.513704345703125,-0.0056862289428710935,9.593715689849853,0.16071078643798828
1790963459533784000,5.5237841796875,-0.16983868026733398,9.630825815582275,0.09561842880249023
1790963459543864300,5.5338642578125,-0.24346038131713865,9.686491004180908,0.148739778137207
1790963459553944300,5.5439443359375,-0.20575170516967772,9.879224237823486,0.1788169364929199
1790963459564024300,5.5540244140625,0.030974983978271482,9.984120198059081,0.06913257293701172
1790963459574104300,5.564104248046875,0.3541922080993652,9.913042336273193,-0.001496376037597656
1790963459584184000,5.57418408203125,0.4547486778259277,9.638307695770264,-0.04668693237304687
1790963459594265300,5.584265380859375,0.30406361083984373,9.41639512939453,-0.2914940521240234
1790963459604345300,5.594345458984375,0.18719664230346678,9.507075517272948,-0.4870704002380371
1790963459614425000,5.604425048828125,0.11118073959350586,9.553163899230956,-0.7703343841552734
1790963459624505300,5.61450537109375,0.030526071166992186,9.823409411621093,-0.6043862815856933
1790963459634585000,5.624585205078125,0.015263035583496093,10.1767037940979,0.23852234039306638
1790963459644665300,5.634665283203125,0.12808978881835936,10.300753367614746,1.0868179161071776
1790963459654745300,5.644745361328125,0.07377133865356444,10.119991142272948,1.4041992736816404
1790963459664825000,5.6548251953125,-0.04279635467529297,9.795876092529296,1.026513961791992
1790963459674905300,5.6649052734375,-0.11118073959350586,9.479991110992431,0.4565443290710449
1790963459684985000,5.674985107421875,-0.1092354507446289,9.304915114593506,0.023642741394042967
1790963459695065300,5.6850654296875,-0.06868366012573242,9.323919090270996,0.023044190979003905
1790963459705145300,5.695145263671875,0.027383681488037107,9.48178676223755,0.17552490921020505
1790963459715225300,5.705225341796875,0.40506899337768554,9.765948571777344,0.3238157745361328
1790963459725305300,5.715305419921875,0.8304887008666991,10.101735354614258,0.42931028518676756
1790963459735385000,5.725385009765625,1.0160393295288086,10.218153410339355,0.45669396667480466
1790963459745465300,5.73546533203125,0.9190741622924804,10.034398432922362,0.694617756652832
1790963459755545000,5.745545166015625,0.6420949577331543,9.797372468566895,0.8396165946960449
1790963459765625300,5.755625244140625,0.229843359375,9.624092123413085,0.9561842880249023
1790963459775705300,5.765705322265625,-0.22101474075317382,9.446023374938964,1.1559504890441894
1790963459785785000,5.77578515625,-0.3628711891174316,9.357737188720703,1.0372878692626952
1790963459795865300,5.785865234375,-0.24570494537353516,9.355342987060546,0.7829039428710937
1790963459805945900,5.79594580078125,-0.1666962905883789,9.241468770599365,0.8342296409606933
1790963459816025900,5.80602587890625,0.12779051361083985,9.843909763336182,1.0009259315490722
1790963459826105900,5.81610595703125,0.136619132232666,10.241646514129638,1.4841057540893554
1790963459836185900,5.826185791015625,0.0626981559753418,10.11176107406616,2.04285256652832
1790963459846265900,5.836265869140625,0.2154781494140625,9.881768077087402,2.4003368019104
1790963459856345900,5.846345947265625,0.39713820037841796,9.477447271728515,2.4224831672668454
1790963459866426000,5.856426025390625,0.7300818687438965,9.960776731872558,2.055272487640381
1790963459876505900,5.866505859375,0.31872809600830077,10.22204398803711,1.6590321128845213
1790963459886585900,5.8765859375,0.12015899581909179,10.005518375396727,0.9937433265686034
1790963459896665900,5.886665771484375,0.26605565948486326,9.740360541534423,0.3365349708557129
1790963459906745900,5.896745849609375,0.4929062667846679,9.324368003082276,0.34820670394897457
1790963459916825900,5.906825927734375,0.3414730117797851,9.069834439086913,1.3009493270874022
1790963459926905900,5.91690576171875,0.26830022354125976,8.790311395263672,2.5278280403137208
1790963459936985900,5.92698583984375,0.4091092086791992,9.776722479248047,2.305167285919189
1790963459947065900,5.93706591796875,0.3479074287414551,11.367968757629393,1.3385083656311034
1790963459957145900,5.947145751953125,-0.05132569808959961,9.725845693969726,1.218050094604492
1790963459967225900,5.957225830078125,-0.7351695472717285,10.089016158294678,-1.0555436569213867
1790963459977305900,5.967305908203125,-0.8222586326599121,10.249577307128906,-0.902763663482666
1790963459987386000,5.97738623046875,-0.11088146438598633,9.380332466888428,1.2975076622009276
1790963459997465900,5.9874658203125,0.32082302246093747,9.520243626403808,1.264737026977539
1790963460007545900,5.9975458984375,0.44427404556274414,9.856628959655762,1.0543465560913086
1790963460017625900,6.0076259765625,0.20575170516967772,9.938480728912353,1.0338462043762207
1790963460027707000,6.017706787109375,-0.3188777336120605,11.252448527526855,0.5856815811157227
1790963460037787000,6.027786865234375,-1.1897685874938964,10.825981356811523,0.12823942642211913
1790963460047867000,6.037866943359375,-0.36915596847534177,10.133757801818847,-0.1867477294921875
1790963460057947000,6.04794677734375,0.4878185882568359,9.660454061126709,-0.3506009056091308
1790963460068027000,6.05802685546875,-0.10265139617919922,9.152733671569823,0.04025251541137695
1790963460078107000,6.06810693359375,-0.2522889999389648,9.444377361297606,0.18944120635986328
1790963460088187000,6.078186767578125,-0.28655601119995117,9.79393080368042,0.021996727752685546
1790963460098267000,6.088266845703125,-0.37978023834228514,10.40011273651123,0.29134441452026366
1790963460108347000,6.098346923828125,-0.16983868026733398,10.626215155792236,0.6636427726745605
1790963460118427000,6.108427001953125,-0.1345242057800293,10.477325740051269,0.7531260597229004
1790963460128507000,6.1185068359375,0.013168109130859374,10.249876582336425,0.8257002975463866
1790963460138587000,6.1285869140625,0.006883329772949218,9.83822353439331,0.6905775413513183
1790963460148667000,6.1386669921875,-0.0613514175415039,9.800365220642089,0.4783914192199707
1790963460158747000,6.148746826171875,-0.05431845016479492,9.88910031967163,0.469263525390625
1790963460168827000,6.158826904296875,-0.11507131729125976,10.033350969696045,0.608426496887207
1790963460178907000,6.168906982421875,-0.0818517692565918,10.11984150466919,0.7439981658935546
1790963460188987000,6.17898681640625,0.13631985702514648,10.089016158294678,0.7402572257995605
1790963460199067000,6.18906689453125,0.25363573837280273,9.891943434143066,0.6232406196594238
1790963460209147000,6.19914697265625,0.34551322708129883,9.69756418685913,0.4798877952575683
1790963460219227000,6.209226806640625,0.4177881896972656,9.488370816802979,0.3468599655151367
1790963460229307000,6.219306884765625,0.4525041137695312,9.389460360717774,0.2861070983886719
1790963460239387000,6.229386962890625,0.4173392768859863,9.450362865447998,0.24361001892089842
1790963460249467000,6.239466796875,0.15951368560791016,9.477746546936034,0.2650081962585449
1790963460259547000,6.249546875,-0.11222820281982421,9.27019919052124,0.3589806114196777
1790963460269627000,6.259626953125,-0.28012159423828126,9.293393019104004,0.5172971961975097
1790963460279707000,6.269706787109375,-0.3001730331420898,9.534908111572266,0.6425438705444335
1790963460289787000,6.279786865234375,-0.2163759750366211,9.55750338973999,0.5092167655944824
1790963460299867000,6.289866943359375,-0.1388636962890625,9.58354033279419,0.4337994132995605
1790963460309947000,6.29994677734375,-0.11507131729125976,9.65925696029663,0.704194563293457
1790963460320027000,6.31002685546875,-0.10788871231079102,9.657610946655273,0.797418790435791
1790963460330107000,6.32010693359375,-0.011222820281982421,9.824307237243652,0.548421817779541
1790963460340187000,6.330186767578125,0.03426701126098632,9.790489138793944,0.4471171600341797
1790963460350267000,6.340266845703125,-0.09516951599121093,9.782109432983399,0.62563482131958
1790963460360347000,6.350346923828125,-0.1815104133605957,9.762057994079589,0.6678326255798339
1790963460370427000,6.360427001953125,-0.2753331909179687,9.78629928588867,0.615459464263916
1790963460380507000,6.3705068359375,-0.251540811920166,9.78016414413452,0.6142623634338379
1790963460390587000,6.3805869140625,-0.2721908012390137,9.740210903930663,0.7793126403808593
1790963460400667000,6.3906669921875,-0.25049334869384765,9.767594585418701,0.9501987838745116
1790963460410747600,6.40074755859375,-0.16849194183349608,9.764003282928467,0.873434693145752
1790963460420828000,6.410827880859375,-0.17163433151245117,9.751433724212646,0.7466916427612305
1790963460430908000,6.420907958984375,-0.25438392639160157,9.744400756835937,0.7612064903259277
1790963460440988000,6.43098779296875,-0.3269581642150879,9.732579386138916,0.8503905021667479
1790963460451068000,6.44106787109375,-0.3308487419128418,9.7683427734375,0.9434650917053222
1790963460461148000,6.45114794921875,-0.28730419921875,9.766996035003661,0.9213187263488769
1790963460471228000,6.461227783203125,-0.26650457229614255,9.756222127532958,0.8665513633728027
1790963460481308000,6.471307861328125,-0.3085527389526367,9.77492682800293,0.8180687797546387
1790963460491388000,6.481387939453125,-0.32830490264892576,9.751583361816406,0.8848071510314941
1790963460501468000,6.491468017578125,-0.26815058593749996,9.781510882568359,0.8904933799743652
1790963460511548000,6.5015478515625,-0.2292448089599609,9.76145944366455,0.8348281913757324
1790963460521628000,6.5116279296875,-0.23433248748779295,9.776423204040526,0.8360252922058105
1790963460531707600,6.521707763671875,-0.24525603256225584,9.78734674911499,0.797418790435791
1790963460541788000,6.531787841796875,-0.23732523956298826,9.839121360015868,0.8089408859252929
1790963460551868000,6.541867919921875,-0.2528875503540039,9.78629928588867,0.8702923034667969
1790963460561948000,6.551947998046875,-0.0652419952392578,9.760561618041992,0.8875006278991698
1790963460572028000,6.56202783203125,-0.1384147834777832,9.828497090148925,0.7429507026672363
1790963460582108000,6.57210791015625,-0.2889502128601074,9.734674312591553,0.7242460021972655
1790963460592188000,6.58218798828125,-0.15083470458984374,9.73661960144043,0.8084919731140137
1790963460602268000,6.592267822265625,-0.13602058181762694,9.850344180297851,0.8313865264892578
1790963460612348000,6.602347900390625,-0.09711480484008789,9.801711959075927,0.9274538681030273
1790963460622428000,6.612427978515625,0.007032967376708984,9.816974994659423,0.7353191848754882
1790963460632508000,6.6225078125,-0.14679448928833008,9.668235216522216,0.7094318794250488
1790963460642588000,6.632587890625,-0.1236006607055664,9.782558345794676,0.6720224784851074
1790963460652667600,6.642667724609375,-0.16505027694702148,9.689783031463623,0.5717652839660644
1790963460662748000,6.652747802734375,-0.22400749282836913,9.849595992279053,0.8378209434509277
1790963460672828000,6.662827880859375,-0.09906009368896483,9.778967043304442,0.7984662536621093
1790963460682908000,6.672907958984375,0.02184709014892578,9.805452899169921,0.7909843734741211
1790963460692988000,6.68298779296875,-0.002992752075195312,9.835380419921874,0.6905775413513183
1790963460703068000,6.69306787109375,-0.15592238311767578,9.781510882568359,0.656909080505371
1790963460713148000,6.70314794921875,-0.2498947982788086,9.724349317932129,0.5865794067382812
1790963460723228000,6.713227783203125,-0.174926358795166,9.714622873687743,0.7031471000671387
1790963460733308000,6.723307861328125,-0.15771803436279297,9.695020347595214,0.7333738960266113
1790963460743388000,6.733387939453125,-0.1444002876281738,9.78629928588867,0.7740753242492675
1790963460753469000,6.743468994140625,-0.06808510971069336,9.800963771057129,0.7136217323303222
1790963460763549000,6.753548828125,0.025139117431640625,9.849895267486572,0.6682815383911133
1790963460773629000,6.76362890625,-0.007032967376708984,9.782707983398437,0.6157587394714356
1790963460783709000,6.773708984375,-0.08828618621826172,9.801113408660887,0.613514175415039
1790963460793789000,6.783788818359375,-0.1253963119506836,9.680355862426758,0.6042366439819336
1790963460803868700,6.79386865234375,-0.11566986770629882,9.75502502670288,0.5391442863464355
1790963460813948700,6.80394873046875,0.2964320930480957,9.860369899749756,0.5849333930969238
1790963460824028700,6.814028564453125,0.1997662010192871,9.847650703430174,0.5725134719848632
1790963460834109000,6.82410888671875,-0.2876034744262695,9.718363813781737,0.51071314163208
1790963460844188700,6.834188720703125,-0.08664017257690429,9.96047745666504,0.8176198669433593
1790963460854268700,6.8442685546875,0.28221652069091796,9.708936644744872,0.7390601249694824
1790963460864348700,6.8543486328125,0.03561374969482422,9.809493114471435,0.7155670211791991
1790963460874428700,6.8644287109375,0.10205284576416015,9.887753581237792,1.0589853218078613
1790963460884509000,6.874509033203125,-0.032920272827148434,9.655366382598876,0.716913759613037
1790963460894588700,6.884588623046875,0.04144961624145507,9.868599967956543,1.1674725845336913
1790963460904669000,6.8946689453125,0.2079962692260742,9.609726913452148,0.682497110748291
1790963460914748700,6.904748779296875,0.22041619033813475,9.824756150054931,1.172859538269043
1790963460924828700,6.91482861328125,0.008678981018066407,9.85079309310913,1.1969511924743652
1790963460934909000,6.924908935546875,0.03890577697753906,9.725097505950927,1.4814122772216796
1790963460944988700,6.93498876953125,0.1566705711364746,10.138995117950438,2.27913034286499
1790963460955069000,6.94506884765625,-0.09681552963256836,9.873837284088134,2.130390564727783
1790963460965148700,6.955148681640625,-0.4444236831665039,9.651475804901123,1.4645032279968262
1790963460975228700,6.965228759765625,-0.5336076950073242,9.78121160736084,1.195155541229248
1790963460985308700,6.97530859375,0.0522235237121582,9.317335035705566,1.4052467369079589
1790963460995388700,6.985388671875,0.3821744400024414,9.41085853805542,1.594837580871582
1790963461005469000,6.995468994140625,0.28356325912475583,9.866654679107665,1.9457377616882323
1790963461015548700,7.005548583984375,-0.040102877807617184,9.775974291229247,2.085798558807373
1790963461025629000,7.01562890625,-0.3318962051391601,9.89613328704834,1.8947113388061523
1790963461035710000,7.0257099609375,-0.5158008201599121,9.714473236083984,1.8739117118835449
1790963461045789700,7.035789794921875,-0.6534674156188964,9.585784896850585,1.9276316116333008
1790963461055869700,7.04586962890625,-0.5225345123291015,9.528623332214355,2.3505074798583983
1790963461065949700,7.05594970703125,-0.5419874008178711,9.509918631744384,2.454056701660156
1790963461076029700,7.06602978515625,-0.732326432800293,9.624391398620604,2.5942671363830563
1790963461086109700,7.076109619140625,-0.7064391273498535,9.732130473327636,2.926612254333496
1790963461096189700,7.086189697265625,-0.711227530670166,9.769240599060058,3.23696064453125
1790963461106270000,7.09627001953125,-0.9276035057067871,9.613916766357422,2.6514287010192867
1790963461116349700,7.106349609375,-0.978031378173828,9.472958143615722,1.912069300842285
1790963461126429700,7.1164296875,-0.45968671875,9.699210200500488,2.5005939964294432
1790963461136509700,7.126509765625,-0.3163338943481445,9.496002334594726,3.053205667114258
1790963461146589700,7.136589599609375,-1.0027215827941893,9.55106897277832,2.8151322395324705
1790963461156670000,7.146669921875,-1.303642803955078,9.446621925354004,2.390311082458496
1790963461166749700,7.156749755859375,-1.2282254516601563,9.625738137054443,1.6499042190551756
1790963461176829700,7.16682958984375,-0.5951087501525879,9.566481645965576,1.7699135772705077
1790963461186909700,7.17690966796875,-0.04548983154296875,9.560795417022705,2.3587375480651853
1790963461196989700,7.18698974609375,-0.26710312271118164,9.634267480468749,2.2948422912597657
1790963461207069700,7.197069580078125,-0.5240308883666992,9.645490300750732,1.5976806953430174
1790963461217149700,7.207149658203125,-0.6172551155090331,9.636063131713867,1.120336739349365
1790963461227230000,7.21722998046875,-0.636558366394043,9.60224503326416,1.3902829765319824
1790963461237309700,7.227309814453125,-0.032172084808349606,9.59536170349121,2.0232500404357907
1790963461247389700,7.2373896484375,0.2219125663757324,9.634267480468749,1.6069582267761229
1790963461257469700,7.2474697265625,-0.07900865478515624,9.737068514251709,1.1635820068359375
1790963461267549700,7.2575498046875,-0.2973299186706543,9.694870709991454,0.37409400939941406
1790963461277630000,7.2676298828125,-0.15382745666503905,9.875184022521973,0.1671452033996582
1790963461287709700,7.277709716796875,0.13542203140258788,9.88999814529419,0.6455366226196289
1790963461297789700,7.287789794921875,0.27892449340820313,9.999981784057617,0.7486369316101074
1790963461307869700,7.29786962890625,0.3947439987182617,9.842862300109863,0.28266543350219725
1790963461317949700,7.30794970703125,0.3098994773864746,9.73617068862915,-0.05431845016479492
1790963461328030700,7.31803076171875,-0.01092354507446289,9.700556938934326,-0.18106150054931638
1790963461338110700,7.32811083984375,0.12419921112060546,9.854534033203125,0.1253963119506836
1790963461348190700,7.338190673828125,0.5422866760253906,9.794230078887939,0.07796119155883789
1790963461358270700,7.348270751953125,0.47554830474853516,9.887005393218994,-0.2346317626953125
1790963461368350700,7.358350830078125,0.4173392768859863,9.973795203399657,-0.14125789794921875
1790963461378430700,7.3684306640625,0.5147533569335937,9.979631069946288,-0.2829647087097168
1790963461388510700,7.3785107421875,0.5150526321411133,9.957634342193604,-0.3274070770263672
1790963461398590700,7.3885908203125,0.20859481964111326,9.786598561096191,-0.2480991470336914
1790963461408670700,7.398670654296875,0.08170213165283202,9.93997710494995,-0.2868552864074707
1790963461418750700,7.408750732421875,0.42018239135742186,9.887304668426513,-0.1548749198913574
1790963461428831000,7.4188310546875,0.5395931991577149,9.881618439483642,0.06703764648437499
1790963461438910700,7.42891064453125,0.26830022354125976,9.722254391479492,0.05491700057983398
1790963461448990700,7.43899072265625,0.3580827857971191,9.9078050201416,0.015861585998535155
1790963461459070700,7.44907080078125,0.48766895065307614,9.777021754455566,-0.29553426742553707
1790963461469150700,7.459150634765625,0.29777883148193357,9.880870251464843,-0.5575497116088867
1790963461479230700,7.469230712890625,0.5270236404418945,9.87653076095581,-0.037110125732421874
1790963461489310700,7.479310791015625,0.5421370384216309,9.886855755615233,0.04159925384521484
1790963461499390700,7.489390625,0.27144261322021485,9.81278514175415,-0.03591302490234375
1790963461509470700,7.499470703125,0.22385785522460935,9.870395619201659,0.04668693237304687
1790963461519550700,7.50955078125,0.33743279647827146,9.831489842224121,-0.32082302246093747
1790963461529630700,7.519630615234375,0.36317046432495115,9.877727861785887,-0.5511152946472168
1790963461539710700,7.529710693359375,0.38681320571899414,10.068964719390868,-0.4740519287109375
1790963461549791000,7.539791015625,0.30346506042480464,9.858723886108399,-0.23313538665771483
1790963461559870700,7.54987060546875,0.3920505218505859,9.783007258605956,-0.18899229354858396
1790963461569950700,7.55995068359375,0.4761468551635742,9.543736730194091,-0.4282628219604492
1790963461580031700,7.57003173828125,0.40028059005737304,9.612121115112304,0.3181295455932617
1790963461590111700,7.58011181640625,-0.08813654861450194,9.650877254486083,0.3221697608947754
1790963461600191700,7.590191650390625,-0.15068506698608397,10.066869792938231,0.974290438079834
1790963461610271700,7.600271728515625,0.17357962036132812,9.998485408020018,1.1767501159667968
1790963461620351700,7.610351806640625,0.1614589744567871,9.913491249084473,1.2674305038452147
1790963461630431700,7.620431640625,-0.37978023834228514,9.67242506942749,0.7787140899658203
1790963461640511700,7.63051171875,-0.3917512466430664,9.739761991119384,1.3199533027648924
1790963461650591700,7.640591796875,-0.019901801300048826,9.657610946655273,1.2105682144165038
1790963461660671700,7.650671630859375,0.09995791931152344,9.885060104370117,1.1668740341186523
1790963461670751700,7.660751708984375,0.11207856521606445,9.762506906890868,1.1195885513305663
1790963461680831700,7.670831787109375,-0.22340894241333006,9.846004689788817,0.5310638557434082
1790963461690911700,7.680911865234375,-0.14006079711914063,9.80620108718872,0.5654805046081542
1790963461700991700,7.69099169921875,0.24480711975097655,9.777321029663085,0.9347861106872558
1790963461711071700,7.70107177734375,0.3006219459533691,9.725396781158446,1.120336739349365
1790963461721151700,7.71115185546875,-0.14125789794921875,9.687987380218505,1.1161468864440918
1790963461731231700,7.721231689453125,-0.3024175971984863,9.756671040344237,0.9855132583618164
1790963461741311700,7.731311767578125,-0.10609306106567382,9.727042794799804,1.030404539489746
1790963461751391700,7.741391845703125,0.04249707946777344,9.801562321472167,1.2032359718322754
1790963461761471700,7.7514716796875,0.07003039855957031,9.795427179718017,1.4050970993041991
1790963461771551700,7.7615517578125,-0.0469862075805664,9.765050746154785,1.4775216995239258
1790963461781631700,7.7716318359375,-0.1771709228515625,9.643844287109374,1.2355576942443847
1790963461791711700,7.781711669921875,-0.11791443176269531,9.734973587799072,1.579424907684326
1790963461801791700,7.791791748046875,0.021697452545166016,9.810839852905273,1.7764976318359373
1790963461811872000,7.8018720703125,-0.24181436767578124,9.968408249664305,1.4015057968139648
1790963461821952000,7.811951904296875,-0.4421791191101074,9.500491462707519,0.6804021842956542
1790963461832033300,7.822033203125,0.1322796417236328,9.953594126892089,1.234809506225586
1790963461842113000,7.832113037109375,0.5784989761352539,9.425672660827637,1.2057798110961913
1790963461852193000,7.842193115234375,-0.15951368560791016,9.779864868927001,1.7018284675598143
1790963461862273000,7.85227294921875,-0.5476736297607422,9.446621925354004,2.299780332183838
1790963461872353000,7.86235302734375,-0.39220015945434566,10.00387236175537,1.7679682884216308
1790963461882433000,7.87243310546875,0.018255787658691406,9.518447975158692,2.0597616157531737
1790963461892513000,7.882512939453125,-0.5665279678344726,9.708487731933593,1.3928268157958983
1790963461902593000,7.892593017578125,-0.3938461730957031,9.96511622238159,2.431760698699951
1790963461912673000,7.902673095703125,0.09427169036865234,9.654767832183838,1.6142904693603515
1790963461922753000,7.9127529296875,0.04249707946777344,9.918728565216064,1.7102081733703611
1790963461932833000,7.9228330078125,-0.03486556167602539,9.488969367218017,1.5485995613098145
1790963461942913000,7.9329130859375,-0.5330091445922851,9.788394212341307,1.373224289703369
1790963461952993300,7.9429931640625,-0.29718028106689454,9.589974749755859,1.7767969070434568
1790963461963073000,7.953072998046875,0.2166752502441406,9.821913035583496,1.4001590583801269
1790963461973153000,7.963153076171875,0.24630349578857422,9.642048635864258,1.3572130661010742
1790963461983233000,7.97323291015625,-0.33354221878051754,9.757568865966796,1.0549451065063475
1790963461993313000,7.98331298828125,-0.1714846939086914,9.708188456726074,1.2773065856933592
1790963462003393000,7.99339306640625,0.35449148330688474,9.740360541534423,1.2693757926940916
1790963462013471200,8.00347119140625,0.7802104660034179,9.727790982818602,1.5324387001037596
1790963462023551000,8.013551025390624,0.6953659446716308,9.684246440124511,1.3519757499694824
1790963462033631000,8.023630859375,0.06823474731445311,9.669581954956055,1.1851298217773436
1790963462043711000,8.0337109375,-0.18749591751098632,9.860369899749756,0.697161595916748
1790963462053791000,8.043791015625,0.485873299407959,9.841365924072266,0.5467758041381836
1790963462063871200,8.053871337890625,0.8539818046569824,9.883563728332518,0.9094973556518554
1790963462073952000,8.063951904296875,0.5765536872863769,9.791386964416503,1.2035352470397949
1790963462084032000,8.074031982421875,0.15098434219360352,9.701454764556884,1.4413093994140624
1790963462094112300,8.0841123046875,0.12659341278076172,9.635913494110106,1.2773065856933592
1790963462104192000,8.09419189453125,0.2558803024291992,9.641300447845458,0.9406219772338866
1790963462114272000,8.10427197265625,0.44966099929809566,9.897779300689697,0.9706991355895995
1790963462124352000,8.11435205078125,0.6040870063781738,9.809343476867674,0.8084919731140137
1790963462134432000,8.124431884765626,0.38890813217163084,9.908702845764159,0.5391442863464355
1790963462144512000,8.134511962890626,0.25752631607055665,9.83822353439331,0.6060322952270507
1790963462154592000,8.144592041015626,0.2885013000488281,9.765798934173583,0.251540811920166
1790963462164672300,8.15467236328125,0.299424845123291,9.704746791839598,-0.181959326171875
1790963462174752000,8.164751953125,0.13422493057250975,9.655964933013916,-0.12479776153564452
1790963462184832000,8.17483203125,0.22355858001708984,9.975291579437256,0.4248211570739746
1790963462194912000,8.184912109375,0.25094226150512694,9.748740247344971,0.014514847564697266
1790963462204992000,8.194991943359375,0.017657237243652344,10.01719010848999,-0.5505167442321777
1790963462215072300,8.205072265625,0.17342998275756835,9.947758260345458,-0.43454760131835934
1790963462225152000,8.215152099609375,0.16654665298461913,9.922768780517577,-0.6817489227294922
1790963462235232000,8.22523193359375,-0.02154781494140625,9.802011234283446,-0.354341845703125
1790963462245312000,8.23531201171875,0.07407061386108398,9.81293477935791,-0.029628245544433593
1790963462255392000,8.24539208984375,0.18869301834106444,9.735123225402832,-0.3311480171203613
1790963462265472000,8.255471923828125,0.010025719451904296,9.82535470046997,-0.34536358947753903
1790963462275552000,8.265552001953125,-0.04115034103393554,9.791686239624022,-0.22355858001708984
1790963462285632300,8.27563232421875,0.1349731185913086,9.906458281707764,0.27563246612548825
1790963462295713000,8.285713134765626,0.2733879020690918,9.94715970993042,1.154304475402832
1790963462305793000,8.29579296875,0.014065934753417967,9.64070189743042,1.933916390991211
1790963462315873000,8.305873046875,-0.29972412033081053,9.5507696975708,1.4317325927734375
1790963462325953000,8.315953125,-0.5523123954772949,9.62783306350708,0.38681320571899414
1790963462336033000,8.326032958984374,0.005985504150390624,9.643844287109374,0.6522703147888184
1790963462346113000,8.336113037109374,-0.08933364944458007,9.869198518371581,0.45893853073120117
1790963462356193000,8.346193115234374,-0.04773439559936523,10.062380664825438,1.60246909866333
1790963462366273000,8.35627294921875,-0.034715924072265626,9.890746333312988,1.4876970565795897
1790963462376353000,8.36635302734375,-0.38307226562499996,9.706991355895996,1.4724340209960938
1790963462386433000,8.37643310546875,-0.729034405517578,9.510068269348144,1.6244658264160154
1790963462396513000,8.386512939453125,-0.6883329772949218,9.445424824523926,1.9373580558776855
1790963462406593000,8.396593017578125,-0.2219125663757324,9.424325922393798,2.679859845733642
1790963462416673000,8.406673095703125,-0.2512415367126465,9.578153379058838,2.7730840728759762
1790963462426753000,8.4167529296875,-0.6787561706542968,9.734823950195311,1.9508254402160643
1790963462436833000,8.4268330078125,-0.8607154968261719,9.939827467346191,1.0628758995056151
1790963462446913000,8.4369130859375,-0.6856395004272461,10.001029247283935,0.8939350448608397
1790963462456993000,8.446992919921875,-0.43619361495971676,9.884910466766357,1.2629413757324217
1790963462467073000,8.457072998046876,-0.541388850402832,9.777321029663085,1.6379332107543945
1790963462477153000,8.467153076171876,-0.8966285217285156,9.632022916412353,1.3238438804626464
1790963462487233000,8.47723291015625,-1.0173860679626465,9.601646482849121,0.9669581954956055
1790963462497313000,8.48731298828125,-0.8518868782043456,9.79946739501953,0.6838438491821288
1790963462507393000,8.49739306640625,-0.6334159767150879,9.945962609100341,0.8268973983764648
1790963462517474000,8.50747412109375,-0.4783914192199707,9.848099616241454,1.2147580673217773
1790963462527554000,8.517553955078125,-0.28805238723754883,9.86441011505127,1.4223054237365722
1790963462537634000,8.527634033203125,-0.438587816619873,9.644143562316893,1.3067851936340331
1790963462547714000,8.537714111328125,-0.8848071510314941,9.523236378479004,1.042674822998047
1790963462557794000,8.5477939453125,-0.9060556907653808,9.522188915252684,0.6376058296203613
1790963462567874000,8.5578740234375,-0.6832452987670898,9.664195001220703,0.7906850982666015
1790963462577954000,8.5679541015625,-0.4617816452026367,9.864859027862549,1.049558152770996
1790963462588034000,8.578033935546875,-0.37289690856933594,9.96556513519287,1.1317091972351074
1790963462598114000,8.588114013671875,-0.47150808944702144,9.967660061645507,1.2364555198669434
1790963462608194000,8.598194091796875,-0.6383540176391601,9.822810861206055,0.9810241302490234
1790963462618274000,8.608274169921875,-0.7369651985168456,9.708787007141114,0.9490016830444336
1790963462628354000,8.61835400390625,-0.6245873580932617,9.574711714172363,1.1420341918945311
1790963462638434000,8.62843408203125,-0.3537432952880859,9.670330142974853,1.3440449569702149
1790963462648514000,8.63851416015625,-0.17178396911621094,9.655516020202636,1.349581548309326
1790963462658594000,8.648593994140626,-0.008080430603027343,9.90166987838745,1.2065279991149902
1790963462668674000,8.658674072265624,0.0143652099609375,9.973795203399657,0.8719383171081543
1790963462678754000,8.668754150390624,-0.24316110610961914,9.897330387878418,0.9069535163879394
1790963462688834000,8.678833984375,-0.2859574607849121,9.739163440704345,1.1516109985351561
1790963462698914000,8.6889140625,-0.08978256225585937,9.501239650726317,1.25126964263916
1790963462708994000,8.698994140625,-0.1836053398132324,9.39798970413208,1.094898346710205
1790963462719075000,8.709074951171875,-0.22340894241333006,9.496600885009766,1.2707225311279295
1790963462729155000,8.719155029296875,-0.1541267318725586,9.67197615661621,1.3048399047851562
1790963462739234800,8.72923486328125,0.026036943054199218,9.475352345275878,1.1412860038757324
1790963462749315000,8.739315185546875,0.9904512992858886,9.992499903869628,1.4531307701110838
1790963462759395000,8.74939501953125,0.6121674369812011,10.127772297668457,0.9934440513610839
1790963462769475000,8.75947509765625,-1.096095447540283,10.298808078765868,1.6889596336364745
1790963462779555000,8.76955517578125,-1.0250175857543944,9.387066159057616,1.8408418014526367
1790963462789634800,8.779634765625,1.0940005210876464,9.85079309310913,1.294814185333252
1790963462799715000,8.789715087890626,1.4936825607299804,8.749310691833495,0.8655039001464844
1790963462809794300,8.799794189453126,-0.5086182151794433,9.273341580200194,0.2154781494140625
1790963462819874000,8.8098740234375,-1.4502876556396485,9.983072734832763,1.2192471954345703
1790963462829954000,8.8199541015625,-1.0670657524108886,10.191817192077636,2.6411037063598632
1790963462840034000,8.830033935546876,-0.24181436767578124,10.216657034301758,2.829497449493408
1790963462850114000,8.840114013671876,-0.24615385818481444,9.654767832183838,2.5758617111206052
1790963462860194300,8.8501943359375,-1.0562918449401855,9.727491707611083,2.4257751945495603
1790963462870274000,8.860274169921874,-1.163133094024658,9.513659571838378,2.2385785522460937
1790963462880354000,8.87035400390625,-0.7073369529724121,9.853935482788085,2.729090617370605
1790963462890434000,8.88043408203125,-0.8239046463012695,10.030657492828368,1.7794903839111327
1790963462900514000,8.89051416015625,-0.7187094108581542,9.663297175598144,0.8049006706237792
1790963462910594300,8.90059423828125,-0.1740285331726074,9.554061724853515,0.6214449684143066
1790963462920674000,8.910674072265625,-0.6980594215393066,9.333046984100342,0.1261444999694824
1790963462930755000,8.920755126953125,-0.9190741622924804,9.552714986419677,1.2758102096557618
1790963462940835300,8.93083544921875,-0.656310530090332,9.83822353439331,1.4701894569396972
1790963462950915000,8.9409150390625,-0.3477577911376953,9.960926369476319,0.9757868141174316
1790963462960995000,8.9509951171875,-0.35314474487304687,9.57650736541748,0.9288006065368651
1790963462971075000,8.961074951171875,-0.5626373901367188,9.794379716491699,0.8854057014465332
1790963462981155000,8.971155029296876,-0.3107973030090332,10.134954902648925,1.6452654533386228
1790963462991235000,8.981235107421876,0.09023147506713866,10.161141483306885,1.5924433792114256
1790963463001315000,8.991315185546876,0.003441664886474609,9.932495224761963,1.190666413116455
1790963463011395300,9.001395263671874,-0.943614729309082,9.39769042892456,1.3373112648010252
1790963463021475000,9.01147509765625,-1.5690999130249021,9.0397572807312,1.2589011604309082
1790963463031555000,9.02155517578125,-1.2508207298278808,9.197774590301513,1.6753426116943357
1790963463041635000,9.031635009765624,-0.2953846298217773,9.586383447265625,1.9807529609680175
1790963463051715000,9.041715087890625,0.20545242996215818,9.874286196899414,1.7316063507080077
1790963463061795300,9.05179541015625,-0.48078562088012694,10.19540849456787,2.047491332244873
1790963463071875000,9.061875,-1.173458088684082,10.028562566375731,2.110788038635254
1790963463081955000,9.071955078125,-0.9231143775939941,9.775675016021728,1.7398364189147948
1790963463092035000,9.08203515625,-0.2855085479736328,9.710433020782471,1.7919103050231933
1790963463102115000,9.092114990234375,-0.37065234451293944,9.690082306671142,1.7362451164245605
1790963463112196000,9.102196044921875,-1.0411784469604493,9.357886826324462,1.6594810256958006
1790963463122276000,9.112276123046875,-1.1233294914245604,9.374197325134277,1.9975123725891113
1790963463132356000,9.122356201171876,-0.5913678100585937,9.293991569519042,1.9672855766296387
1790963463142436000,9.13243603515625,-0.3708019821166992,9.56917512283325,1.7356465660095213
1790963463152516000,9.14251611328125,-0.5360018966674804,10.121038605499267,1.9015946685791014
1790963463162596400,9.152596435546876,-1.0353425804138183,10.222193625640868,1.9099743743896482
1790963463172676000,9.162676025390626,-1.2113164024353027,10.092308185577393,1.8257284034729002
1790963463182756000,9.172756103515624,-0.7281365798950195,9.695618898010252,1.760785683441162
1790963463192836000,9.182836181640624,-0.5798457145690917,9.379584278869629,1.4806640892028808
1790963463202916000,9.192916015625,-0.8707412162780761,9.191190535736084,1.4125789794921875
1790963463212996000,9.20299609375,-0.6856395004272461,9.630077627563477,1.4573206230163573
1790963463223076000,9.213076171875,-0.4221276802062988,9.711779759216308,1.5517419509887695
1790963463233156000,9.223156005859375,-0.7553706237792969,9.86441011505127,1.5553332534790039
1790963463243236000,9.233236083984375,-0.8955810585021972,10.116699114990233,1.4312836799621582
1790963463253316000,9.243316162109375,-1.1517606361389159,10.044424152374267,1.21939683303833
1790963463263396000,9.25339599609375,-1.2330138549804688,9.862015913391113,1.2026374214172362
1790963463273476000,9.26347607421875,-0.9644143562316894,9.160664464569091,1.032948378753662
1790963463283556000,9.27355615234375,-1.2551602203369139,8.947580516815185,0.9165303230285644
1790963463293636000,9.283635986328125,-1.0675146652221679,9.624241761016846,1.2623428253173827
1790963463303716000,9.293716064453125,-0.8336310905456542,10.24059905090332,1.2409446479797364
1790963463313797000,9.303797119140626,-0.8952817832946777,10.567108302307128,1.0483610519409179
1790963463323877000,9.313877197265626,-1.0984896492004395,9.912294148254395,0.9350853858947753
1790963463333957000,9.32395703125,-1.3688847991943358,9.934889426422119,0.7212532501220703
1790963463344037000,9.334037109375,-1.682225941467285,9.143905052947998,1.0703577796936035
1790963463354117000,9.3441171875,-1.815702684020996,9.651176529693602,1.0377367820739745
1790963463364197000,9.354197021484374,-1.478569162750244,8.769362130737305,1.175852290344238
1790963463374277000,9.364277099609374,-1.1013327636718748,9.726444244384766,1.2514192802429198
1790963463384357000,9.374357177734375,-1.2202946586608887,10.051157844543457,0.8467991996765136
1790963463394437000,9.38443701171875,-0.9035118515014647,9.983521647644043,1.3428478561401367
1790963463404517000,9.39451708984375,-1.1507131729125977,9.56408744430542,0.9029133010864258
1790963463414597000,9.40459716796875,-1.7503110511779785,10.097395864105223,1.132607022857666
1790963463424677000,9.414677001953125,-1.6289549545288085,9.947608622741699,1.6301520553588866
1790963463434757000,9.424757080078125,-1.6475100173950195,9.207052121734618,0.7809586540222168
1790963463444837000,9.434837158203125,-1.2101193016052245,9.115773183441162,0.7697358337402344
1790963463454917000,9.444917236328125,-0.7179612228393554,9.216030377960205,0.54902036819458
1790963463464997000,9.4549970703125,-0.773776049041748,9.867851779937743,0.3972878379821777
1790963463475077000,9.4650771484375,-1.3070844688415526,9.675417821502686,0.6848913124084473
1790963463485157000,9.4751572265625,-1.9174562545776366,9.88341409072876,0.2659060218811035
1790963463495237000,9.485237060546876,-1.9632453613281249,9.60748234939575,0.3489548919677734
1790963463505318100,9.495318115234374,-1.5364789154052734,9.937582903289794,0.48886605148315426
1790963463515398100,9.505398193359374,-0.4664204109191894,10.115801289367676,-0.07197568740844726
1790963463525478100,9.51547802734375,-0.26171616897583005,10.037989735412596,-0.48811786346435543
1790963463535558100,9.52555810546875,-1.4661492416381836,9.220070593261719,-0.2855085479736328
1790963463545638100,9.53563818359375,-1.844433103942871,9.713276135253906,-0.4777928688049316
1790963463555718100,9.54571826171875,-1.5055039314270018,9.637409870147705,-0.3898059577941894
1790963463565798100,9.555798095703125,-0.6567594429016113,10.006565838623047,0.1867477294921875
1790963463575878100,9.565878173828125,0.3574842353820801,9.642048635864258,-0.11432312927246092
1790963463585958100,9.575958251953125,-0.3033154228210449,9.23862565612793,-0.11297639083862304
1790963463596038100,9.5860380859375,-1.0043675964355467,9.801562321472167,0.0848445213317871
1790963463606118100,9.5961181640625,-1.3398551040649413,10.198550884246826,0.0383072265625
1790963463616198100,9.6061982421875,-1.35990654296875,10.239551587677001,0.4734533782958984
1790963463626278100,9.616278076171875,-0.2929904281616211,9.415796578979492,-0.1988683753967285
1790963463636358100,9.626358154296875,0.20814590682983397,9.336787924194335,-0.46941316299438474
1790963463646438100,9.636438232421876,0.31094694061279293,11.063156958770751,-0.40237551651000975
1790963463656518100,9.64651806640625,-0.3624222763061523,9.78629928588867,-0.5838859298706054
1790963463666598100,9.65659814453125,-0.8794201972961425,9.874884747314452,-0.1623568000793457
1790963463676678100,9.66667822265625,0.6287772109985351,9.331700245666504,-0.35718496017456053
1790963463686759200,9.67675927734375,1.1985972061157226,9.955090502929687,-0.48946460189819335
1790963463696839200,9.686839111328124,-0.09202712631225586,9.856628959655762,-0.6898293533325195
1790963463706919200,9.696919189453125,-1.7036241188049315,9.344718717193603,0.040102877807617184
1790963463716999200,9.706999267578125,-2.0316297462463377,9.455001631164551,0.7950245887756348
1790963463727079200,9.7170791015625,-0.9235632904052734,9.83807389678955,1.5735890411376952
1790963463737159000,9.727158935546875,0.4112041351318359,10.753407118988036,2.246658982849121
1790963463747239200,9.7372392578125,1.2339116806030272,10.490942761993407,2.3139959045410157
1790963463757319200,9.747319091796875,0.2163759750366211,9.371354210662842,2.5225907241821286
1790963463767399200,9.757399169921875,-1.6814777534484862,9.444227723693848,2.3044190979003907
1790963463777479200,9.767479248046875,-2.0528782859802246,9.95239702606201,2.6816554969787596
1790963463787559000,9.777558837890625,-1.243039574432373,9.842862300109863,2.3855226791381834
1790963463797639200,9.78763916015625,0.10579378585815429,9.464129524993895,0.30406361083984373
1790963463807719200,9.79771923828125,0.8309376136779785,9.581595043945311,-0.45400048980712887
1790963463817799700,9.807799560546876,-0.3634697395324707,9.58967547454834,0.1849520782470703
1790963463827880000,9.8178798828125,-1.556380716705322,10.308684160614012,0.46836569976806636
1790963463837959700,9.827959716796874,-0.8536825294494629,10.104578469085693,0.6353612655639648
1790963463848040000,9.8380400390625,0.9546879119873046,10.645518406677246,0.17193360671997068
1790963463858120000,9.848119873046874,1.8538602729797362,10.522665933990478,-1.2415431983947753
1790963463868200700,9.85820068359375,0.9150339469909667,9.956736516571045,-2.5095722526550293
1790963463878281000,9.868281005859375,-0.8054992210388183,9.706093530273437,-2.7965771766662595
1790963463888361000,9.87836083984375,-1.6805799278259277,8.941146099853515,-2.3033716346740722
1790963463898441000,9.88844091796875,-1.7712603157043456,9.39155528717041,-2.947561518859863
1790963463908521000,9.89852099609375,-0.8245031967163086,10.718990470123291,-3.1084219429016113
1790963463918600700,9.9086005859375,0.3386298973083496,10.768969429779052,-2.131138752746582
1790963463928681000,9.918680908203125,0.8614636848449706,10.71928974533081,-2.352452768707275
1790963463938760700,9.9287607421875,0.45340193939208984,8.763675901794434,-2.2260089935302734
1790963463948841000,9.938841064453126,-0.9632172554016113,8.571840493774413,-2.3446716133117675
1790963463958921000,9.9489208984375,-1.882141780090332,9.175179312133789,-1.9822493370056151
1790963463969000700,9.959000732421876,-1.2265794380187987,9.744400756835937,-1.5126865364074706
1790963463979081000,9.9690810546875,0.4664204109191894,9.813982242584228,-2.3841759407043455
1790963463989160700,9.97916064453125,1.4740800346374512,10.601674588775634,-2.709488091278076
1790963463999241000,9.989240966796874,0.9979331794738769,10.68711766052246,-2.3403321228027343
1790963464009321000,9.999321044921874,-1.2018892333984375,9.484180963897705,-1.9065327095031737
1790963464019401000,10.00940087890625,-1.3637971206665038,9.961524919891357,-2.6493337745666503
1790963464029481000,10.01948095703125,0.44981063690185547,9.190442347717285,-2.1321862159729004
1790963464039560700,10.029560791015625,1.1837830833435057,9.780463419342041,-2.1657050392150876
1790963464049641700,10.039641845703125,1.1080664558410644,9.310601343536376,-1.3217489540100096
1790963464059722000,10.049721923828125,0.31708208236694335,10.11879404144287,-0.022744915771484374
1790963464069801700,10.0598017578125,-0.3194762840270996,9.906308644104003,0.10684124908447265
1790963464079882000,10.069882080078125,0.5734112976074218,10.379313109588622,0.37125089492797847
1790963464089961700,10.079961669921875,1.7143980262756346,9.575459902191161,0.02483984222412109
1790963464100042000,10.0900419921875,0.6429927833557129,9.511115732574462,0.11776479415893554
1790963464110122000,10.1001220703125,0.2292448089599609,10.450091696166991,0.9512462471008301
1790963464120201700,10.11020166015625,0.4900631523132324,9.172485835266112,1.7238251953125
1790963464130282000,10.120281982421876,-0.14499883804321287,9.77507646560669,0.7977180656433105
1790963464140361700,10.13036181640625,-0.36436756515502927,9.878326412200927,1.805527326965332
1790963464150442000,10.14044189453125,-0.2856581855773926,9.893739085388184,3.263596138000488
1790963464160522000,10.15052197265625,-0.5255272644042969,9.814281517791747,3.234865718078613
1790963464170601700,10.160601806640624,-0.5565022483825683,9.941772756195068,3.67090969543457
1790963464180682000,10.170681884765624,-1.2014403205871582,8.79674581222534,3.4145804801940915
1790963464190761700,10.18076171875,-1.8378490493774413,9.22530790939331,2.3624784881591796
1790963464200842000,10.190842041015625,-1.504157192993164,10.506205797576904,2.555660634613037
1790963464210921700,10.200921630859375,0.0522235237121582,10.767173778533936,2.6690859382629393
1790963464221002800,10.211002685546875,0.07242460021972656,9.743502931213378,2.8094460105895993
1790963464231083000,10.2210830078125,-1.1893196746826171,10.054300234222412,2.8993782104492185
1790963464241162800,10.231162841796875,-1.6811784782409667,8.347833000946045,2.9020716873168944
1790963464251242800,10.24124267578125,-1.2606968116760253,9.452906704711914,3.891924436187744
1790963464261323000,10.251322998046875,-1.068711766052246,9.829245278167724,3.5330934623718258
1790963464271402800,10.26140283203125,-0.9286509689331054,9.644442837524414,2.0439000297546386
1790963464281483000,10.27148291015625,-0.5636848533630371,10.074650948333739,1.5798738204956053
1790963464291562800,10.281562744140626,-0.16295535049438475,9.598953005981445,0.8892962791442871
1790963464301643000,10.29164306640625,-0.8759785324096679,8.665363996124267,1.0127473022460938
1790963464311723000,10.301722900390626,-0.41060558471679687,9.879074600219726,1.7473182991027831
1790963464321802800,10.311802734375,1.4220061485290527,9.853935482788085,2.3546973327636715
1790963464331883000,10.321883056640624,1.4821604652404785,9.648034140014648,2.1068974609374997
1790963464341962800,10.331962646484374,1.0752958206176757,10.641927104187012,1.7148469390869139
1790963464352043000,10.34204296875,-0.3028665100097656,9.200916979980468,2.416946575927734
1790963464362122800,10.352122802734375,-1.2255319747924804,10.373477243041991,2.3458687141418455
1790963464372202800,10.36220263671875,0.6619967590332031,8.932317481231689,2.738068873596191
1790963464382283000,10.372282958984375,2.2002713256835937,9.297133959197998,2.2541408630371094
1790963464392362800,10.38236279296875,2.471564301300049,9.799018482208252,0.8894459167480468
1790963464402443800,10.39244384765625,1.6545429847717283,9.333346259307861,0.40132805328369137
1790963464412524000,10.40252392578125,1.6626234153747557,10.376769270324706,0.8851064262390136
1790963464422603800,10.412603759765625,1.742380258178711,11.352855359649658,-0.1479915901184082
1790963464432684000,10.42268408203125,0.529268204498291,9.744849669647216,1.016937155151367
1790963464442763800,10.432763671875,0.6513724891662598,9.752181912231444,1.5662567985534668
1790963464452844000,10.442843994140626,2.648136673736572,8.393771745300292,1.121084927368164
1790963464462923800,10.452923828125,2.2131401596069336,8.802432041168212,-0.09307458953857421
1790963464473003800,10.463003662109376,-0.3128922294616699,9.198672415924072,-0.00014963760375976562
1790963464483084000,10.473083984375,-2.1130326026916504,10.96245085144043,0.9431658164978027
1790963464493163800,10.483163818359374,-0.031124621582031248,11.449371614074707,1.3985130447387695
1790963464503244000,10.493244140625,3.442263436889648,10.425251853942871,1.3997101455688477
1790963464513323800,10.50332373046875,4.914398182678222,10.800393326568603,0.7193079612731933
1790963464523403800,10.51340380859375,4.374804983520508,7.804049948883057,0.5234323379516601
1790963464533484000,10.523484130859375,0.7724293106079101,7.2900447799682615,0.4468178848266601
1790963464543563800,10.533563720703125,-1.9405004455566406,8.466944533538818,0.9406219772338866
1790963464553644000,10.54364404296875,-3.1414918533325196,10.819546939849852,1.6910545600891111
1790963464563723800,10.553723876953125,-2.357690084838867,13.363386203765868,2.212242333984375
1790963464573804800,10.5638046875,0.18210896377563476,11.176282987213135,1.6633716033935546
1790963464583885000,10.573885009765625,1.3358148887634276,8.886229099273681,0.35718496017456053
1790963464593964800,10.58396484375,-0.4300584732055664,7.7227967300415035,0.15502455749511718
1790963464604044800,10.594044921875,-1.2352584190368652,7.890390846252441,-0.24211364288330076
1790963464614124800,10.604124755859376,0.750133307647705,10.162039308929442,0.011522095489501952
1790963464624204800,10.614204833984376,1.3570634284973144,10.090811809539794,0.9611223289489745
1790963464634285000,10.62428515625,0.3458125022888183,11.762563118743897,0.6950666694641113
1790963464644364800,10.63436474609375,-2.1267992622375487,10.835258888244628,2.15792388381958
1790963464654445000,10.644445068359374,-3.867533506774902,10.203488925170898,3.283946852111816
1790963464664524800,10.65452490234375,-2.484732410430908,9.702352590179443,5.374833089447021
1790963464674604800,10.664604736328124,0.3054103492736816,6.085761344909668,4.70505517501831
1790963464684685000,10.67468505859375,0.7576151878356933,6.359448522186279,1.5640122344970702
1790963464694764800,10.684764892578125,-0.1693897674560547,11.845312713623047,-1.0694599540710448
1790963464704845000,10.694844970703125,0.5000888717651367,12.938265771484375,-1.678335363769531
1790963464714924800,10.7049248046875,1.5388731170654295,11.156979736328124,0.3721487205505371
1790963464725004800,10.7150048828125,0.043245267486572266,9.509320081329346,2.18994633102417
1790963464735084800,10.725084716796875,-1.8245313026428223,8.134599415588378,1.6283564041137695
1790963464745165800,10.735165771484375,-1.4214075981140135,8.365939151000976,2.731335181427002
1790963464755245800,10.745245849609375,-0.31573534393310543,8.76562119064331,1.933766753387451
1790963464765325800,10.755325927734376,-0.7784148147583008,9.509619356536865,-0.36526539077758785
1790963464775405800,10.76540576171875,-0.28924948806762696,12.091316934204102,0.030825346374511717
1790963464785486000,10.775486083984376,0.5777507881164551,10.786177754211424,1.0121487518310546
1790963464795565800,10.78556591796875,-0.7498340324401855,9.670030867767334,1.2638392013549804
1790963464805645800,10.795645751953124,-1.0799345863342285,9.149441644287108,0.8034042945861816
1790963464815725000,10.80572509765625,-0.6091746849060058,8.310273962402343,0.9702502227783203
1790963464825805300,10.815805419921874,-1.7476175743103026,8.741529536437987,0.41090485992431636
1790963464835885000,10.825885009765624,-2.0605098037719727,10.032153868865967,0.4269160835266113
1790963464845965000,10.835965087890624,-1.2596493484497069,9.968408249664305,0.38830958175659175
1790963464856045000,10.846045166015625,-0.33833062210083004,11.278036557769775,0.39983167724609375
1790963464866125000,10.856125,0.8789712844848633,10.93027876663208,-0.11656769332885741
1790963464876205300,10.866205322265625,-0.26276363220214843,8.374169219207763,-0.86191259765625
1790963464886285000,10.87628515625,-1.6754922492980957,9.025242433166504,-0.510114591217041
1790963464896365000,10.886364990234375,-1.3186065643310547,9.128492379760742,-0.6443395217895508
1790963464906446300,10.8964462890625,-0.9874585472106933,10.261398677825927,-0.6581061813354492
1790963464916526000,10.906526123046875,-0.2813186950683594,10.288034171295166,-0.5618892021179199
1790963464926606000,10.916606201171875,0.6000467910766601,10.992528009796143,-1.394323191833496
1790963464936686000,10.92668603515625,0.09112930068969725,10.000281059265136,-1.1236287666320801
1790963464946766000,10.93676611328125,-1.101931314086914,9.579799392700195,-0.522833787536621
1790963464956846300,10.946846435546876,-1.6898574592590332,8.28648158340454,-1.4372691841125487
1790963464966926000,10.956926025390626,-1.3066355560302734,9.891793796539305,-2.054374662017822
1790963464977006000,10.967006103515626,-0.4906617027282715,9.979930345153807,-1.5671546241760252
1790963464987086000,10.977086181640624,-1.2132616912841796,10.180594371795653,-2.3012767082214354
1790963464997166000,10.987166015625,-0.7686883705139159,11.095478681182861,-2.290652438354492
1790963465007246000,10.99724609375,0.1140238540649414,9.59476315307617,-1.7021277427673338
1790963465017326000,11.007326171875,-0.9102455436706542,9.159168088531494,-2.4350527259826658
1790963465027406300,11.01740625,-1.1379939765930176,9.546729482269287,-2.417694763946533
1790963465037486000,11.027486083984375,-0.6560112548828124,10.281150841522216,-1.8709189598083495
1790963465047566000,11.037566162109375,-1.0369885940551757,9.973795203399657,-1.6283564041137695
1790963465057646000,11.04764599609375,-0.2603694305419922,10.35552073059082,-2.1748329330444336
1790963465067726000,11.05772607421875,-0.3298012786865234,9.013271424865723,-2.5857377929687497
1790963465077807000,11.06780712890625,-1.4214075981140135,9.72285294189453,-2.4506150367736814
1790963465087887000,11.07788720703125,-1.2834417274475096,9.734674312591553,-1.8655320060729979
1790963465097967000,11.087967041015625,-0.9620201545715331,10.20229182434082,-1.643320164489746
1790963465108047000,11.098047119140626,-0.4652233100891113,10.646116957092284,-1.4803648139953614
1790963465118127000,11.108127197265626,-0.8996212738037109,8.444648530578613,-0.8586205703735351
1790963465128207000,11.11820703125,-0.6479308242797851,8.72716432647705,-1.1239280418395996
1790963465138287000,11.128287109375,-0.5371989974975586,8.870816426086424,-1.4080898513793945
1790963465148367000,11.1383671875,-1.5578770927429197,11.859677923583984,-0.08170213165283202
1790963465158447000,11.148447021484374,-0.7829039428710937,11.445331398773193,1.2337620429992675
1790963465168527000,11.158527099609374,-0.522235237121582,10.46385835571289,-0.17462708358764648
1790963465178607000,11.168607177734375,-1.4276923774719237,9.69083049468994,-0.6560112548828124
1790963465188687000,11.17868701171875,-1.7950526947021483,9.104999275970458,0.4412812934875488
1790963465198767000,11.18876708984375,-2.1232079597473144,8.351573941040039,0.31319150466918944
1790963465208847000,11.19884716796875,-1.6736965980529783,9.507075517272948,0.020051438903808592
1790963465218927000,11.208927001953125,-0.45340193939208984,9.950751012420653,0.3673603172302246
1790963465229007000,11.219007080078125,-0.8490437637329101,10.578480760192871,0.44906244888305663
1790963465239087000,11.229087158203125,-1.0658686515808105,10.732757129669189,0.41090485992431636
1790963465249168100,11.239168212890625,-1.2808978881835937,8.629750246429444,1.0009259315490722
1790963465259248000,11.249248046875,-1.4332289688110351,9.377339714813232,0.1527799934387207
1790963465269328100,11.259328125,-0.4230255058288574,10.239401950073242,0.3437175758361816
1790963465279408000,11.269408203125,-1.1438298431396483,8.739284972381592,1.0889128425598145
1790963465289488100,11.279488037109376,-1.6000748970031737,9.387215796661376,-0.24899697265624998
1790963465299568000,11.289568115234376,-0.2262520568847656,10.046818354034423,0.5090671279907226
1790963465309648100,11.299648193359374,-0.07062894897460938,9.649680153656005,1.009305637359619
1790963465319728000,11.30972802734375,-0.9307458953857422,9.874435834503172,-0.2941875289916992
1790963465329808100,11.31980810546875,-1.4579191734313963,9.65312181854248,0.8153753028869628
1790963465339888000,11.32988818359375,-1.174056639099121,10.47029277267456,0.9747393508911132
1790963465349968100,11.339968017578125,-0.3227683113098144,9.60808089981079,0.11267711563110351
1790963465360048000,11.350048095703125,0.11252747802734374,10.432284821319579,0.3155857063293457
1790963465370128100,11.360128173828125,-0.7145195579528808,8.856451216125487,0.16071078643798828
1790963465380208000,11.3702080078125,-2.245312244415283,8.887426200103759,0.18824410552978516
1790963465390288100,11.3802880859375,-1.694496224975586,10.313023651123046,0.14454992523193358
1790963465400368000,11.3903681640625,-0.9024643882751464,9.811737678527832,1.1822867073059082
1790963465410449200,11.40044921875,-0.5921159980773926,10.850222648620605,0.512658430480957
1790963465420529200,11.410529052734375,0.21054010848999022,10.408642079925537,0.5934627365112304
1790963465430609200,11.420609130859376,-0.7142202827453613,9.948656085968016,1.5548843406677244
1790963465440689200,11.430689208984376,-1.2032359718322754,9.611971477508545,0.6163572898864745
1790963465450769200,11.44076904296875,-0.37499183502197264,9.536554125213623,1.0516530792236327
1790963465460849200,11.45084912109375,-1.2255319747924804,9.081506172180175,1.1062708045959473
1790963465470929200,11.46092919921875,-1.716792227935791,9.756671040344237,0.7679401824951172
1790963465481009000,11.4710087890625,-0.8197147933959961,9.719860189819336,1.6862661567687987
1790963465491089200,11.481089111328124,-0.22221184158325194,10.279654465484619,0.9738415252685546
1790963465501169200,11.491169189453124,-0.012719196319580078,10.192116467285155,0.9787795661926268
1790963465511249200,11.501249267578125,-0.6413467697143554,10.110264698028564,1.5272013839721679
1790963465521329200,11.5113291015625,-2.333897705841064,7.89742381362915,1.182436344909668
1790963465531409200,11.5214091796875,-1.848174044036865,10.038139373016357,2.1167735427856442
1790963465541489200,11.5314892578125,0.24136545486450195,9.758317053985595,2.424129180908203
1790963465551569200,11.541569091796875,-0.3389291725158691,9.78076269454956,1.721879906463623
1790963465561649200,11.551649169921875,-1.5976806953430174,9.304765476989745,1.2972083869934081
1790963465571730200,11.561730224609375,-1.6885107208251953,10.271574034881592,2.0917840629577635
1790963465581810200,11.57181005859375,-0.6904279037475586,10.995371124267578,1.9424457344055175
1790963465591890200,11.58189013671875,-0.11372457885742186,8.860790706634521,2.1238065101623533
1790963465601970200,11.59197021484375,-0.8693944778442382,8.769811043548584,1.2369044326782226
1790963465612050200,11.60205029296875,-1.2113164024353027,9.4098110748291,0.9666589202880859
1790963465622130200,11.612130126953126,-1.814355945587158,9.307458953857422,2.195482922363281
1790963465632210000,11.6222099609375,-1.7524059776306151,10.567856490325926,1.25126964263916
1790963465642290200,11.632290283203124,-0.5828384666442871,9.673472532653808,1.340004741668701
1790963465652370200,11.6423701171875,0.14290391159057617,10.121487518310547,1.4733318466186522
1790963465662450200,11.6524501953125,0.6738181297302246,10.806678105926514,0.35942952423095703
1790963465672530200,11.6625302734375,-0.3947439987182617,9.482534950256348,0.9609726913452148
1790963465682610000,11.67260986328125,-1.5071499450683592,9.412803826904296,0.9781810157775879
1790963465692690200,11.682690185546875,-0.3972878379821777,8.881739971160888,0.5316624061584473
1790963465702770200,11.692770263671875,0.7320271575927734,10.3805102104187,0.960823053741455
1790963465712850200,11.70285009765625,0.003142389678955078,9.221866244506835,0.8931868568420409
1790963465722930200,11.71293017578125,-1.0667664772033691,10.43841996307373,0.5975029518127442
1790963465733011000,11.723010986328125,-0.6346130775451659,9.504531678009032,1.0230722969055175
1790963465743091200,11.73309130859375,-0.6733692169189452,10.031854593658446,1.054047280883789
1790963465753171200,11.743171142578126,-0.5472247169494628,9.119214848327637,0.5620388397216797
1790963465763251000,11.7532509765625,-0.4586392555236816,9.69741454925537,0.9962871658325195
1790963465773331200,11.763331298828126,0.19258359603881836,10.928632752990723,0.7366659233093261
1790963465783411000,11.773410888671876,0.12898761444091797,9.712827222442627,1.3195043899536132
1790963465793491200,11.7834912109375,-0.4113537727355957,8.863783458709717,0.5602431884765625
1790963465803571200,11.7935712890625,-0.5277718284606934,8.875155916595459,0.44262803192138667
1790963465813652000,11.80365185546875,-0.18824410552978516,10.755801320648192,0.9644143562316894
1790963465823732000,11.81373193359375,0.222810391998291,10.504110871124267,0.9581295768737792
1790963465833812000,11.82381201171875,-0.16385317611694336,9.662100074768066,-0.2127846725463867
1790963465843892200,11.833892333984375,-0.6536170532226562,9.329904594421386,-0.9910498497009277
1790963465853972000,11.843971923828125,-1.107617543029785,10.060585013580322,-0.5458779785156249
1790963465864052000,11.854052001953125,-0.8813654861450195,9.574562076568602,-0.43619361495971676
1790963465874132000,11.864132080078125,-0.1566705711364746,10.223091451263427,-0.9680056587219238
1790963465884212000,11.8742119140625,0.9564835632324218,11.534365773010252,-1.1979986557006834
1790963465894293000,11.88429296875,0.7454945419311523,10.125827008819579,-1.6090531532287597
1790963465904373000,11.894373046875,-0.7890390846252441,10.248978756713866,-1.918503717803955
1790963465914453000,11.904452880859376,-1.2846388282775878,9.157372437286377,-1.6949451377868652
1790963465924533000,11.914532958984376,-0.5811924530029297,8.795399073791504,-1.6379332107543945
1790963465934613000,11.924613037109374,0.745045629119873,10.526107598876953,-2.1217115837097165
1790963465944693000,11.93469287109375,1.2165537185668944,10.06836616897583,-1.8843863441467283
1790963465954773000,11.94477294921875,-0.06883329772949218,9.526079492950439,-1.84503165435791
1790963465964853000,11.95485302734375,-0.8590694831848144,10.075249498748779,-1.777994007873535
1790963465974933000,11.96493310546875,0.25962124252319335,10.541669909667968,-0.9157821350097656
1790963465985013000,11.975012939453125,0.7492354820251464,9.271246653747559,-1.1655272956848144
1790963465995093000,11.985093017578125,0.4312555740356445,10.206780952453613,-1.366939510345459
1790963466005173000,11.995173095703125,-0.5970540390014648,8.652195886993407,-0.6458358978271485
1790963466015253000,12.0052529296875,-2.0540753868103026,9.216778565979004,-0.9614216041564941
1790963466025333000,12.0153330078125,-0.859368758392334,9.496301609802245,-1.0860697280883789
1790963466035413000,12.0254130859375,1.290325057220459,10.20782841567993,-0.9979331794738769
1790963466045493000,12.035492919921875,1.6853683311462402,10.397419259643554,-1.5052046562194823
1790963466055574000,12.045573974609376,1.2395979095458984,9.76145944366455,-0.7049427513122558
1790963466065654000,12.055654052734376,0.13138181610107422,10.462661254882812,-0.5569511611938476
1790963466075734000,12.065734130859376,-0.6769605194091797,9.126098178100586,-0.3687070556640625
1790963466085814000,12.07581396484375,-0.7483376564025879,8.95147109451294,-0.03651157531738281
1790963466095894000,12.08589404296875,-0.1044470474243164,9.96511622238159,-0.8883984535217284
1790963466105974000,12.09597412109375,0.505625463104248,10.97427222213745,0.04025251541137695
1790963466116054000,12.106053955078124,-0.6118681617736816,8.656984290313721,0.12823942642211913
1790963466126134000,12.116134033203124,-0.8102876243591308,9.827000714111328,-0.1610100616455078
1790963466136214000,12.126214111328125,0.9789292037963867,10.358962395477294,0.10130465774536132
1790963466146294000,12.1362939453125,0.608426496887207,10.711358952331542,0.7567173622131347
1790963466156374000,12.1463740234375,-0.5204395858764648,9.330952057647705,0.10564414825439453
1790963466166454000,12.1564541015625,-0.48766895065307614,9.956886154174803,0.056413376617431635
1790963466176534000,12.166533935546875,-0.28909985046386716,8.909123652648926,0.8604162216186523
1790963466186614000,12.176614013671875,-0.18599954147338865,9.674370358276366,0.9600748657226562
1790963466196694000,12.186694091796875,-0.37663784866333005,9.494805233764648,0.07631517791748046
1790963466206775000,12.196775146484375,-0.8132803764343262,10.01659155807495,1.0377367820739745
1790963466216855000,12.20685498046875,-0.08334814529418945,10.222642538452147,0.21472996139526365
1790963466226934800,12.216934814453126,0.19991583862304688,10.8156563621521,0.29239187774658204
1790963466237015000,12.22701513671875,-0.5659294174194336,9.153631497192382,0.8274959487915039
1790963466247095000,12.237094970703126,-0.5446808776855468,9.329156406402587,0.1731307075500488
1790963466257175000,12.247175048828124,-0.34491467666625975,9.529670795440673,0.33054946670532226
1790963466267255000,12.257255126953124,-0.6232406196594238,9.385869058227538,0.4700117134094238
1790963466277335000,12.2673349609375,-0.7432499778747558,9.285162950897217,-0.17028759307861327
1790963466287415000,12.2774150390625,-0.15906477279663084,10.625317330169677,-0.13392565536499024
1790963466297494800,12.287494873046874,0.16684592819213867,10.368988114929198,0.7026981872558593
1790963466307575000,12.297574951171875,0.36960488128662106,11.399691929626464,-0.23403321228027343
1790963466317655000,12.307655029296875,-0.42975919799804685,8.69603970489502,-0.30690672531127927
1790963466327735000,12.317735107421875,-1.126172605895996,10.729614739990234,0.3532943824768066
1790963466337815000,12.32781494140625,-0.6649895111083984,8.652046249389647,-0.10654197387695312
1790963466347894800,12.337894775390625,-0.7531260597229004,10.350582689666748,0.299424845123291
1790963466357975000,12.34797509765625,0.42003275375366206,10.223690001678467,0.20081366424560546
1790963466368056000,12.35805615234375,-0.19617489852905273,9.36013139038086,0.7662941688537597
1790963466378135800,12.3681357421875,-0.8379705810546875,9.978134693908691,0.09666589202880858
1790963466388217000,12.378217041015626,-0.14006079711914063,10.9804073638916,0.5596446380615234
1790963466398297000,12.388297119140624,0.2798223190307617,10.554838018798828,0.5761047744750977
1790963466408376800,12.398376953125,-0.17462708358764648,9.286659326934814,0.3678092300415039
1790963466418457000,12.40845703125,-0.14080898513793944,9.462932424163817,-0.19378069686889648
1790963466428536800,12.418536865234374,-0.8551789054870605,9.107094202423095,0.5600935508728027
1790963466438617000,12.4286171875,-1.664269429016113,8.779088574981689,0.781407566833496
1790963466448697000,12.438697021484375,-1.3346177879333496,8.826074782562255,0.20679916839599607
1790963466458776800,12.44877685546875,0.19602526092529296,10.627262619018554,0.6322188758850097
1790963466468857000,12.458857177734375,0.8463502868652343,9.305663302612304,0.809539436340332
1790963466478936800,12.468936767578125,-0.5457283409118652,10.005518375396727,-0.31753099517822264
1790963466489017000,12.47901708984375,-0.6759130561828612,10.088866520690917,0.5976525894165039
1790963466499097000,12.48909716796875,-0.43724107818603514,10.241945789337157,0.8369231178283691
1790963466509177000,12.499177001953125,0.08215104446411133,9.737517427062988,0.02319382858276367
1790963466519257000,12.509257080078125,-0.3525461944580078,8.698433906555175,0.8774749084472656
1790963466529337900,12.519337890625,-0.8898948295593261,10.069862545013427,0.24869769744873046
1790963466539417900,12.52941796875,-0.7543231605529784,10.390236654663086,1.0122983894348143
1790963466549498000,12.539498046875,-1.073200894165039,9.970353538513184,1.0721534309387206
1790963466559577900,12.549577880859376,-0.24181436767578124,10.276811351013183,0.7351695472717285
1790963466569658000,12.559658203125,1.2265794380187987,10.790816519927978,0.9395745140075683
1790963466579737900,12.56973779296875,-0.5246294387817383,7.94845023651123,0.8705915786743164
1790963466589818000,12.579818115234374,-2.4913164649963377,8.795698348999023,0.7574655502319335
1790963466599898000,12.589898193359375,-1.4333786064147949,9.866804316711425,1.4050970993041991
1790963466609977900,12.599977783203125,0.09681552963256836,10.532242740631103,1.7604864082336424
1790963466620058000,12.61005810546875,0.8450035484313965,10.430189894866944,1.222539222717285
1790963466630137900,12.620137939453125,1.086518640899658,10.780192250061035,0.7350199096679687
1790963466640218000,12.630218017578125,-0.3607762626647949,10.09380456161499,1.3120225097656248
1790963466650298000,12.640298095703125,-1.7679682884216308,9.477147996520996,1.5263035583496092
1790963466660377900,12.6503779296875,-0.7598597518920898,9.757868141174315,0.9599252281188965
1790963466670458000,12.6604580078125,0.6202478675842285,10.158298368835448,1.0624269866943359
1790963466680539000,12.670538818359375,-0.1131260284423828,9.156324974060057,0.5472247169494628
1790963466690619000,12.680618896484376,-1.0039186836242675,10.46385835571289,0.5253776268005371
1790963466700699100,12.69069921875,-1.3204022155761719,8.47278040008545,1.1653776580810546
1790963466710779000,12.70077880859375,-1.1341033988952636,9.703100778198241,0.4122515983581543
1790963466720859100,12.710859130859374,0.419434203338623,9.59610989151001,0.27727847976684566
1790963466730939000,12.72093896484375,-0.19288287124633788,9.842712662506102,0.5798457145690917
1790963466741019100,12.73101904296875,-0.8092401611328125,11.393856063079832,0.10639233627319335
1790963466751099100,12.74109912109375,-0.505625463104248,10.110264698028564,1.148468608856201
1790963466761179000,12.751178955078124,-0.08723872299194335,10.168473725891113,0.36691140441894526
1790963466771259100,12.761259033203125,-0.16265607528686524,8.406790216827392,0.0848445213317871
1790963466781339000,12.7713388671875,-0.8900444671630859,9.279775997161865,0.2501940734863281
1790963466791419100,12.781419189453125,-2.2694038986206055,6.8770449935913085,0.03696048812866211
1790963466801499000,12.791498779296875,-2.497002693939209,9.251494490051268,-0.04578910675048828
1790963466811578400,12.801578369140625,0.16594810256958006,11.496956372070311,0.6857891380310058
1790963466821658400,12.811658447265625,1.185578734588623,9.65312181854248,1.1381436141967773
1790963466831739400,12.821739501953125,0.42751463394165035,11.521048026275635,-0.037110125732421874
1790963466841819400,12.8318193359375,0.9117419197082519,10.68188034439087,0.376039298248291
1790963466851899400,12.8418994140625,-0.3673603172302246,10.764330664062498,0.842758984375
1790963466861979400,12.8519794921875,-0.8372223930358886,9.210194511413574,0.31229367904663086
1790963466872059400,12.862059326171876,-0.042048166656494135,8.498667705535889,0.3860650177001953
1790963466882139400,12.872139404296876,-0.953790086364746,8.391676818847655,-0.1640028137207031
1790963466892219400,12.882219482421876,-2.1218612213134764,9.465925176239013,0.6548141540527344
