time,seconds_elapsed,z,y,x
1790963454115793000,0.10579296875,-0.16173407435417175,0.26692819595336914,0.1291104555130005
1790963454125873000,0.115872802734375,-0.1926235556602478,0.32858356833457947,0.1333925426006317
1790963454135953000,0.125952880859375,-0.19907931983470917,0.32071739435195923,0.12532582879066467
1790963454146033000,0.136032958984375,-0.1709962785243988,0.279790997505188,0.13469190895557404
1790963454156113000,0.14611279296875,-0.12858891487121582,0.19048453867435455,0.16211606562137604
1790963454166193000,0.15619287109375,-0.09634548425674438,0.11067226529121399,0.19754330813884735
1790963454176273000,0.16627294921875,-0.08004560321569443,0.06481396406888962,0.24200424551963806
1790963454186353000,0.176352783203125,-0.06749945133924484,0.03205175697803497,0.2763318717479706
1790963454196433000,0.186432861328125,-0.04673691838979721,0.038023095577955246,0.3052668571472168
1790963454206513000,0.196512939453125,-0.0366043895483017,0.06909499317407608,0.32744112610816956
1790963454216593000,0.206593017578125,-0.03736418858170509,0.11483877897262573,0.34845346212387085
1790963454226673000,0.2166728515625,-0.04300716146826744,0.1636313498020172,0.3862155079841614
1790963454236753000,0.2267529296875,-0.013090007938444614,0.1977136880159378,0.40605178475379944
1790963454246833000,0.2368330078125,0.028044378384947777,0.2258174866437912,0.38110435009002686
1790963454256913000,0.246912841796875,0.09302497655153275,0.19212158024311066,0.3088749051094055
1790963454266991900,0.256991943359375,0.1619071066379547,0.07274165749549866,0.22893185913562775
1790963454277072000,0.26707177734375,0.22850103676319122,-0.06270378082990646,0.1765938103199005
1790963454287151900,0.27715185546875,0.2654881179332733,-0.16730237007141113,0.19500663876533508
1790963454297232000,0.28723193359375,0.2795325517654419,-0.22336243093013763,0.2705565392971039
1790963454307311900,0.297311767578125,0.29174500703811646,-0.27185380458831787,0.39279723167419434
1790963454317392000,0.307391845703125,0.3317052125930786,-0.301546186208725,0.5037420988082886
1790963454327471900,0.317471923828125,0.3847247362136841,-0.3054106831550598,0.5384180545806885
1790963454337552000,0.3275517578125,0.40766894817352295,-0.25220048427581787,0.4733586609363556
1790963454347631900,0.3376318359375,0.37356823682785034,-0.17240791022777557,0.3695627450942993
1790963454357712000,0.3477119140625,0.3254856765270233,-0.09172505140304565,0.31532642245292664
1790963454367791900,0.3577919921875,0.2509640157222748,0.00994618609547615,0.3462510406970978
1790963454377872000,0.367871826171875,0.2053525745868683,0.1472683548927307,0.4426654577255249
1790963454387951900,0.377951904296875,0.18858589231967926,0.2610756456851959,0.5902451276779175
1790963454398032000,0.388031982421875,0.19359742105007172,0.2664352357387543,0.7489303946495056
1790963454408111900,0.39811181640625,0.19863665103912354,0.17180834710597992,0.885039746761322
1790963454418192000,0.40819189453125,0.2086637169122696,-0.06865271925926208,0.9739379286766052
1790963454428271900,0.41827197265625,0.02517085336148739,-0.4284210205078125,1.2628179788589478
1790963454438352000,0.428351806640625,-0.1896631419658661,-0.25687509775161743,1.4505231380462646
1790963454448431900,0.438431884765625,-0.37686687707901,-0.06187817081809044,1.5747759342193604
1790963454458512000,0.448511962890625,-0.5334548354148865,0.10764401406049728,1.6575053930282593
1790963454468591900,0.458591796875,-0.7019277811050415,0.23294255137443542,1.7560831308364868
1790963454478672000,0.468671875,-0.883158802986145,0.33508142828941345,1.8703635931015015
1790963454488750800,0.478750732421875,-0.9334107637405396,0.5739001631736755,1.9727416038513184
1790963454498830800,0.488830810546875,-0.7290664315223694,0.8758009076118469,2.018980026245117
1790963454508910800,0.498910888671875,-0.3494408428668976,1.029042363166809,2.0119664669036865
1790963454518991000,0.5089912109375,-0.06808851659297943,1.0986320972442627,1.9245096445083618
1790963454529070800,0.51907080078125,0.05074732005596161,1.0653811693191528,1.7425179481506348
1790963454539150800,0.52915087890625,0.03582136705517769,0.946780800819397,1.5443193912506104
1790963454549230800,0.53923095703125,-0.027397282421588898,0.6683310270309448,1.4708383083343506
1790963454559310800,0.549310791015625,-0.10823167860507965,0.3689326047897339,1.5521107912063599
1790963454569390800,0.559390869140625,-0.18140068650245667,0.25158971548080444,1.7035735845565796
1790963454579470800,0.569470947265625,-0.2704536020755768,0.19742104411125183,1.8806545734405518
1790963454589550800,0.57955078125,-0.32887163758277893,0.289385050535202,2.0687785148620605
1790963454599630800,0.589630859375,-0.3445805609226227,0.5155748128890991,2.2508857250213623
1790963454609710800,0.5997109375,-0.35500019788742065,0.8151695132255554,2.429119110107422
1790963454619790800,0.609790771484375,-0.3631449341773987,1.0976812839508057,2.590414047241211
1790963454629870800,0.619870849609375,-0.3529666066169739,1.2529339790344238,2.722970724105835
1790963454639951000,0.629951171875,-0.30451464653015137,1.2869079113006592,2.81424880027771
1790963454650030800,0.64003076171875,-0.2474454790353775,1.2483171224594116,2.8564302921295166
1790963454660110800,0.65011083984375,-0.2179991751909256,1.130672574043274,2.8279991149902344
1790963454670190800,0.66019091796875,-0.2277119904756546,0.9678999185562134,2.7277135848999023
1790963454680270800,0.670270751953125,-0.2960412800312042,0.9256701469421387,2.4723291397094727
1790963454690350800,0.680350830078125,-0.346051961183548,0.7746161818504333,2.0584933757781982
1790963454700430800,0.690430908203125,-0.21749983727931976,0.5562998652458191,1.733802318572998
1790963454710510800,0.7005107421875,0.015423683449625969,0.3599225878715515,1.4181956052780151
1790963454720590800,0.7105908203125,0.29148057103157043,0.21955084800720215,1.0997843742370605
1790963454730670800,0.7206708984375,0.5144407153129578,0.10582294315099716,0.7983775734901428
1790963454740750800,0.730750732421875,0.6492578983306885,0.012230409309267998,0.5664225816726685
1790963454750829800,0.740829833984375,0.7155831456184387,-0.04965372756123543,0.3879823088645935
1790963454760909800,0.750909912109375,0.7664998173713684,-0.08491291850805283,0.28776487708091736
1790963454770989800,0.76098974609375,0.8401708602905273,-0.05990956351161003,0.2745486795902252
1790963454781069800,0.77106982421875,0.9389808177947998,-0.057822443544864655,0.3299435079097748
1790963454791149800,0.78114990234375,1.0147144794464111,-0.05689220130443573,0.44401440024375916
1790963454801229300,0.791229248046875,0.9892250895500183,-0.07365786284208298,0.5922179818153381
1790963454811309000,0.80130908203125,0.86857670545578,-0.034726712852716446,0.704609215259552
1790963454821389300,0.811389404296875,0.7028931975364685,0.09139713644981384,0.7209874391555786
1790963454831469000,0.821468994140625,0.5156420469284058,0.1829342395067215,0.6187819838523865
1790963454841549000,0.831549072265625,0.33389484882354736,0.29650020599365234,0.31021612882614136
1790963454851629000,0.841629150390625,0.13429787755012512,0.3046731650829315,-0.2595685124397278
1790963454861709000,0.851708984375,0.032193876802921295,-0.08343273401260376,-0.7505579590797424
1790963454871789300,0.861789306640625,0.07076629996299744,-0.49533453583717346,-1.1733741760253906
1790963454881869000,0.871869140625,0.0966586172580719,-0.9244051575660706,-1.48312509059906
1790963454891949000,0.881948974609375,0.07089439779520035,-1.225908875465393,-1.6837869882583618
1790963454902029000,0.892029052734375,-0.013185590505599976,-1.3193539381027222,-1.813906192779541
1790963454912109000,0.902109130859375,-0.12176106870174408,-1.1443442106246948,-1.8692879676818848
1790963454922189300,0.912189208984375,-0.22362004220485687,-0.902090847492218,-1.8475788831710815
1790963454932269000,0.92226904296875,-0.2855992913246155,-0.6562850475311279,-1.786044716835022
1790963454942349300,0.932349365234375,-0.29182201623916626,-0.4414321780204773,-1.6794450283050537
1790963454952429000,0.942428955078125,-0.2269093245267868,-0.25233814120292664,-1.4851166009902954
1790963454962509000,0.952509033203125,-0.10296421498060226,-0.07556362450122833,-1.2197397947311401
1790963454972589000,0.962589111328125,0.02511066570878029,0.0772690623998642,-0.891438364982605
1790963454982669000,0.9726689453125,0.13908331096172333,0.18000130355358124,-0.53742516040802
1790963454992749300,0.982749267578125,0.21628595888614655,0.23703902959823608,-0.22838929295539856
1790963455002829000,0.9928291015625,0.2610046863555908,0.21875056624412537,-0.008623102679848671
1790963455012909000,1.002908935546875,0.290130078792572,0.15786457061767578,0.09972840547561646
1790963455022989000,1.012989013671875,0.30618998408317566,0.04179948940873146,0.11635026335716248
1790963455033068300,1.023068359375,0.2852948307991028,-0.10162318497896194,0.06399650871753693
1790963455043148000,1.03314794921875,0.20804667472839355,-0.12203391641378403,-0.02595548890531063
1790963455053228000,1.04322802734375,0.11689118295907974,0.026599494740366936,-0.10028830170631409
1790963455063308300,1.053308349609375,0.030560825020074844,0.23387518525123596,-0.1686742901802063
1790963455073388000,1.063387939453125,-0.005310889333486557,0.43572601675987244,-0.21860137581825256
1790963455083468300,1.07346826171875,-0.010071556083858013,0.4480428695678711,-0.22455912828445435
1790963455093548000,1.083548095703125,-0.07199644297361374,0.2522094249725342,-0.12610659003257751
1790963455103628000,1.0936279296875,-0.16378282010555267,0.030324192717671394,0.06382846087217331
1790963455113708000,1.1037080078125,-0.24076254665851593,-0.13847653567790985,0.29071274399757385
1790963455123788000,1.1137880859375,-0.2674892544746399,-0.16148385405540466,0.485828697681427
1790963455133868300,1.123868408203125,-0.2683606445789337,-0.13578781485557556,0.6258686184883118
1790963455143948000,1.133947998046875,-0.2592281103134155,-0.1837923526763916,0.6584334969520569
1790963455154028300,1.1440283203125,-0.24836108088493347,-0.312491774559021,0.5993709564208984
1790963455164108000,1.15410791015625,-0.2288358509540558,-0.4891248643398285,0.4950389862060547
1790963455174188000,1.16418798828125,-0.1836308240890503,-0.5904629230499268,0.4087706506252289
1790963455184268300,1.174268310546875,-0.08492875099182129,-0.5876561999320984,0.37416741251945496
1790963455194348000,1.18434814453125,0.1292242854833603,-0.5518382787704468,0.3990953862667084
1790963455204428300,1.19442822265625,0.4156155586242676,-0.48094043135643005,0.45762234926223755
1790963455214508000,1.204508056640625,0.6736931800842285,-0.3997374475002289,0.5448811054229736
1790963455224588000,1.214588134765625,0.922532320022583,-0.13620540499687195,0.6463243365287781
1790963455234668000,1.22466796875,1.1239272356033325,0.20567230880260468,0.7767564058303833
1790963455244748000,1.234748046875,1.3005629777908325,0.6041773557662964,0.9520893692970276
1790963455254828300,1.244828369140625,1.4863765239715576,0.9429261088371277,1.1516672372817993
1790963455264908000,1.254907958984375,1.6367521286010742,1.137776494026184,1.3297227621078491
1790963455274988300,1.26498828125,1.670815110206604,1.2298641204833984,1.45518958568573
1790963455285068000,1.275068115234375,1.5212322473526,1.2495871782302856,1.4822059869766235
1790963455295148000,1.28514794921875,1.2038116455078125,1.1627670526504517,1.3161920309066772
1790963455305228300,1.295228271484375,0.919320821762085,1.021571397781372,1.0414704084396362
1790963455315308000,1.30530810546875,0.7558032274246216,0.7917885184288025,0.7387331128120422
1790963455325388300,1.31538818359375,0.6167292594909668,0.4604417383670807,0.3751618266105652
1790963455335467000,1.325467041015625,0.4101898968219757,0.24584130942821503,-0.03197529911994934
1790963455345547300,1.33554736328125,0.20994843542575836,0.21262262761592865,-0.4401795566082001
1790963455355627000,1.345626953125,0.0129919508472085,0.21167400479316711,-0.8183276653289795
1790963455365707300,1.355707275390625,-0.12915532290935516,0.0757065862417221,-1.0430907011032104
1790963455375787000,1.365787109375,-0.2032548487186432,-0.13477155566215515,-1.0273010730743408
1790963455385867000,1.375866943359375,-0.2046966850757599,-0.3722493648529053,-0.7960575222969055
1790963455395947300,1.385947265625,-0.23194904625415802,-0.4710056781768799,-0.4710884690284729
1790963455406027000,1.396027099609375,-0.2895955741405487,-0.44254422187805176,-0.19324778020381927
1790963455416107300,1.406107177734375,-0.29977843165397644,-0.24970126152038574,-0.01847011223435402
1790963455426187000,1.41618701171875,-0.28571081161499023,0.06977872550487518,0.040279489010572433
1790963455436267300,1.426267333984375,-0.2562386691570282,0.40024426579475403,-0.011960280127823353
1790963455446347300,1.43634716796875,-0.1884564310312271,0.6390514969825745,-0.122670017182827
1790963455456427000,1.446427001953125,-0.09037327021360397,0.7429091930389404,-0.23413875699043274
1790963455466507300,1.45650732421875,-0.03927147388458252,0.7150197625160217,-0.30462783575057983
1790963455476587000,1.4665869140625,-0.0530402846634388,0.5868955850601196,-0.3389807641506195
1790963455486667300,1.476667236328125,-0.08227326720952988,0.43175265192985535,-0.35596001148223877
1790963455496747000,1.4867470703125,-0.11170066148042679,0.3460819721221924,-0.37616246938705444
1790963455506827000,1.496826904296875,-0.11438193172216415,0.3009512424468994,-0.38050875067710876
1790963455516907300,1.5069072265625,-0.12468410283327103,0.3053086996078491,-0.38873526453971863
1790963455526987000,1.516987060546875,-0.19149748980998993,0.4217652678489685,-0.38160252571105957
1790963455537067300,1.5270673828125,-0.29524385929107666,0.4991125166416168,-0.3312738537788391
1790963455547147000,1.53714697265625,-0.3903365433216095,0.5815485119819641,-0.26575395464897156
1790963455557227000,1.54722705078125,-0.4646075963973999,0.658736526966095,-0.2395489662885666
1790963455567307300,1.557307373046875,-0.5002747774124146,0.762302041053772,-0.2656919062137604
1790963455577387000,1.567386962890625,-0.504427433013916,0.823421061038971,-0.30043843388557434
1790963455587467300,1.57746728515625,-0.5112331509590149,0.7558649182319641,-0.22713756561279297
1790963455597547000,1.587547119140625,-0.4855877161026001,0.6788145899772644,0.0021845668088644743
1790963455607627300,1.597627197265625,-0.4565190374851227,0.5882272124290466,0.2045762836933136
1790963455617707000,1.60770703125,-0.4888002872467041,0.5484464764595032,0.3427676856517792
1790963455627787000,1.617787109375,-0.48630622029304504,0.5510449409484863,0.41166606545448303
1790963455637867300,1.6278671875,-0.4876825511455536,0.6145320534706116,0.43605342507362366
1790963455647947000,1.637947021484375,-0.4499860405921936,0.6628324389457703,0.3946428894996643
1790963455658027300,1.64802734375,-0.3347633183002472,0.6329179406166077,0.2757849395275116
1790963455668107000,1.65810693359375,-0.17849433422088623,0.4907746911048889,0.14902088046073914
1790963455678187000,1.66818701171875,-0.04145260155200958,0.32191482186317444,0.06637261062860489
1790963455688267300,1.678267333984375,0.06368127465248108,0.1890697032213211,0.05234946683049202
1790963455698346200,1.68834619140625,0.16119691729545593,0.15956507623195648,0.11528448760509491
1790963455708426200,1.69842626953125,0.25826460123062134,0.17811931669712067,0.20552809536457062
1790963455718506000,1.708506103515625,0.3275936245918274,0.21582941710948944,0.2768496572971344
1790963455728586200,1.718586181640625,0.34820303320884705,0.2540593445301056,0.31324681639671326
1790963455738666000,1.728666015625,0.36700892448425293,0.2691802382469177,0.3416329324245453
1790963455748746200,1.738746337890625,0.43600690364837646,0.294973760843277,0.38974905014038086
1790963455758826000,1.748825927734375,0.5280153751373291,0.35800492763519287,0.4422093331813812
1790963455768906200,1.75890625,0.6227506995201111,0.42889347672462463,0.5364573001861572
1790963455778986200,1.768986328125,0.7160438895225525,0.5455276370048523,0.6787459850311279
1790963455789066000,1.77906591796875,0.8552049994468689,0.6358516812324524,0.7596645355224609
1790963455799146500,1.789146484375,1.032287836074829,0.736522912979126,0.7686691880226135
1790963455809226500,1.7992265625,1.2306501865386963,0.7745168805122375,0.7064420580863953
1790963455819306500,1.809306396484375,1.4339830875396729,0.7381439805030823,0.6019777059555054
1790963455829386500,1.819386474609375,1.5849605798721313,0.7342768311500549,0.45529210567474365
1790963455839466200,1.82946630859375,1.6343481540679932,0.8283495306968689,0.25291532278060913
1790963455849546500,1.83954638671875,1.5231592655181885,0.9126446843147278,0.04303799197077751
1790963455859626500,1.84962646484375,1.2663317918777466,0.7701173424720764,-0.08635195344686508
1790963455869706500,1.85970654296875,0.9061858654022217,0.4548473060131073,-0.1616341918706894
1790963455879786500,1.869786376953125,0.4976327121257782,-0.0012959830928593874,-0.237371027469635
1790963455889866200,1.8798662109375,0.14134465157985687,-0.45020613074302673,-0.33896079659461975
1790963455899946500,1.889946533203125,-0.0863359197974205,-0.8552242517471313,-0.40347638726234436
1790963455910026200,1.900026123046875,-0.23580770194530487,-1.0986624956130981,-0.45622962713241577
1790963455920106500,1.9101064453125,-0.35636499524116516,-1.1770113706588745,-0.509869396686554
1790963455930186500,1.9201865234375,-0.3986985981464386,-1.1220905780792236,-0.5548797845840454
1790963455940266500,1.9302666015625,-0.3892025649547577,-1.0576766729354858,-0.5826501250267029
1790963455950346500,1.940346435546875,-0.32069143652915955,-0.9995574355125427,-0.575619637966156
1790963455960426200,1.95042626953125,-0.21660390496253967,-0.9140294790267944,-0.5226049423217773
1790963455970506500,1.960506591796875,-0.1750737726688385,-0.7527873516082764,-0.4503142237663269
1790963455980586500,1.97058642578125,-0.17748527228832245,-0.5175207257270813,-0.4081782102584839
1790963455990666500,1.98066650390625,-0.23147660493850708,-0.33966949582099915,-0.4051608443260193
1790963456000746500,1.99074658203125,-0.30203118920326233,-0.24994094669818878,-0.40401142835617065
1790963456010826200,2.000826171875,-0.3522770404815674,-0.19035086035728455,-0.3694736957550049
1790963456020906500,2.010906494140625,-0.3530115485191345,-0.1296614110469818,-0.29099780321121216
1790963456030986200,2.020986328125,-0.3263589143753052,-0.06001442298293114,-0.1913854330778122
1790963456041066500,2.03106640625,-0.28602638840675354,0.022743571549654007,-0.11411754041910172
1790963456051146500,2.041146484375,-0.2888943552970886,0.07396254688501358,-0.09273901581764221
1790963456061226200,2.051226318359375,-0.3031347990036011,0.03251604363322258,-0.08375510573387146
1790963456071306500,2.061306396484375,-0.3090134561061859,-0.005702183116227388,-0.04975799098610878
1790963456081386200,2.07138623046875,-0.2753037214279175,0.03168779984116554,0.015571745112538338
1790963456091466500,2.081466552734375,-0.19701290130615234,0.07265999913215637,0.12079910188913345
1790963456101546500,2.09154638671875,-0.08511565625667572,0.1200333684682846,0.21944338083267212
1790963456111626500,2.10162646484375,-0.00587516650557518,0.20321720838546753,0.27112653851509094
1790963456121706500,2.11170654296875,0.04139647260308266,0.24276702105998993,0.2634536921977997
1790963456131785500,2.121785400390625,0.07081162184476852,0.2651141285896301,0.18601858615875244
1790963456141865500,2.131865478515625,0.048421360552310944,0.26560336351394653,0.07267311215400696
1790963456151945500,2.141945556640625,-0.22443147003650665,0.20318391919136047,0.06000259518623352
1790963456162025500,2.152025390625,-0.27838337421417236,0.032121896743774414,0.1297702193260193
1790963456172105200,2.162105224609375,-0.12894490361213684,-0.1562538743019104,0.2246679663658142
1790963456182185500,2.172185546875,0.008531736209988594,-0.20763583481311798,0.28598910570144653
1790963456192265500,2.182265380859375,0.05816639959812164,-0.09035369008779526,0.22144554555416107
1790963456202345500,2.192345458984375,-0.08820359408855438,-0.09320008009672165,0.14257016777992249
1790963456212425500,2.202425537109375,-0.16231803596019745,-0.07817958295345306,0.0487334281206131
1790963456222505200,2.212505126953125,-0.20656272768974304,-0.07028117775917053,0.0017267693765461445
1790963456232585500,2.22258544921875,-0.24737007915973663,-0.061262644827365875,-0.0224510058760643
1790963456242665500,2.23266552734375,-0.35824358463287354,-0.07157840579748154,-0.01115840207785368
1790963456252745500,2.242745361328125,-0.4235629439353943,-0.11877494305372238,0.026874465867877007
1790963456262825500,2.252825439453125,-0.3824642598628998,-0.2497502714395523,0.03393770381808281
1790963456272905500,2.262905517578125,-0.33699315786361694,-0.39158302545547485,0.09440983831882477
1790963456282985500,2.2729853515625,-0.2918137013912201,-0.28500279784202576,0.10666703432798386
1790963456293065200,2.283065185546875,-0.31690627336502075,-0.09614233672618866,-0.0024762311950325966
1790963456303145500,2.2931455078125,-0.3909975588321686,-0.019127976149320602,-0.1293012797832489
1790963456313225500,2.3032255859375,-0.3800559639930725,-0.014419774524867535,-0.2204437106847763
1790963456323305500,2.313305419921875,-0.2196662724018097,-0.014639219269156456,-0.287019282579422
1790963456333385500,2.323385498046875,0.0065207830630242825,-0.06825744360685349,-0.3072846233844757
1790963456343465200,2.33346533203125,0.18691639602184296,-0.1777234822511673,-0.2528458833694458
1790963456353545500,2.34354541015625,0.2590545117855072,-0.27022063732147217,-0.2070607990026474
1790963456363625500,2.35362548828125,0.20448793470859528,-0.1816052943468094,-0.18158526718616486
1790963456373705500,2.36370556640625,0.1799418330192566,0.02090199664235115,-0.17273610830307007
1790963456383785500,2.373785400390625,0.18697258830070496,0.09586598724126816,-0.17745549976825714
1790963456393865500,2.383865478515625,0.2622066140174866,0.10141867399215698,-0.1538071632385254
1790963456403945500,2.393945556640625,0.28300824761390686,0.05199304595589638,-0.14157119393348694
1790963456414025200,2.404025146484375,0.3437142074108124,-0.011520415544509888,-0.0613354854285717
1790963456424105500,2.41410546875,0.37542209029197693,-0.07928694784641266,0.030242368578910828
1790963456434185500,2.424185546875,0.33187565207481384,-0.06971687823534012,0.05592748895287514
1790963456444265500,2.434265380859375,0.27916479110717773,-0.08482978492975235,0.07313258200883865
1790963456454345500,2.444345458984375,0.20615477859973907,-0.13901393115520477,0.09704616665840149
1790963456464425200,2.45442529296875,0.060333386063575745,-0.07587144523859024,0.055917102843523026
1790963456474505500,2.46450537109375,-0.006589455530047417,-0.026746239513158798,0.05382359400391579
1790963456484585500,2.47458544921875,-0.09543463587760925,0.037959519773721695,0.0743941217660904
1790963456494665500,2.48466552734375,-0.1082143485546112,0.058233633637428284,0.12296165525913239
1790963456504745500,2.494745361328125,-0.006419545505195856,-0.008633015677332878,0.1849059760570526
1790963456514825500,2.504825439453125,-0.0028594317846000195,-0.014357213862240314,0.22987478971481323
1790963456524905500,2.514905517578125,0.01698191650211811,-0.007998917251825333,0.19997361302375793
1790963456534985200,2.524985107421875,0.04353949427604675,-0.04581660404801369,0.11298278719186783
1790963456545065500,2.5350654296875,0.0662197694182396,-0.061751361936330795,-0.039343103766441345
1790963456555145500,2.5451455078125,0.09745465964078903,-0.06099103018641472,-0.13149113953113556
1790963456565225500,2.5552255859375,0.1540936976671219,-0.1280566155910492,-0.10966946184635162
1790963456575305500,2.565305419921875,0.24540577828884125,-0.24709086120128632,0.030666876584291458
1790963456585385200,2.57538525390625,0.23896518349647522,-0.2923118472099304,0.17449063062667847
1790963456595465500,2.585465576171875,0.2108432650566101,-0.25710564851760864,0.2449304312467575
1790963456605545500,2.59554541015625,0.15522047877311707,-0.22338153421878815,0.2821747362613678
1790963456615625500,2.60562548828125,0.13857945799827576,-0.27763116359710693,0.3949023485183716
1790963456625705500,2.61570556640625,0.07867883890867233,-0.26834234595298767,0.40081778168678284
1790963456635785200,2.62578515625,0.07199563831090927,-0.173908531665802,0.36848458647727966
1790963456645865500,2.635865478515625,0.16111885011196136,-0.07711274176836014,0.3124738037586212
1790963456655945200,2.6459453125,0.23947544395923615,-0.07348684966564178,0.3490733504295349
1790963456666025500,2.656025390625,0.17222529649734497,-0.005811396520584822,0.29995426535606384
1790963456676105500,2.66610546875,0.19893121719360352,0.023649021983146667,0.18465325236320496
1790963456686185500,2.676185546875,0.15342897176742554,-0.02951645851135254,0.02839786186814308
1790963456696264400,2.686264404296875,0.09454009681940079,0.05621175840497017,-0.10633464902639389
1790963456706344400,2.696344482421875,0.05634104087948799,0.0637919157743454,-0.13273030519485474
1790963456716424400,2.706424560546875,0.028022583574056625,0.0019109714776277542,-0.12712568044662476
1790963456726504400,2.71650439453125,-0.02225150540471077,0.007680976763367653,-0.09085982292890549
1790963456736584400,2.72658447265625,-0.016947288066148758,-0.002549557015299797,0.0016781007871031761
1790963456746664400,2.73666455078125,0.008637700229883194,-0.03697437793016434,0.09360696375370026
1790963456756744400,2.746744384765625,0.04082519933581352,-0.12181176990270615,0.19032950699329376
1790963456766824400,2.756824462890625,0.1505439728498459,-0.2271413803100586,0.229423388838768
1790963456776904400,2.766904541015625,0.2870035469532013,-0.4293259084224701,0.2703724205493927
1790963456786984400,2.776984375,0.3361404538154602,-0.38795769214630127,0.11755863577127457
1790963456797064200,2.787064208984375,0.34208089113235474,-0.25048452615737915,-0.012812957167625427
1790963456807144200,2.797144287109375,0.3487505316734314,-0.11528276652097702,-0.09979578852653503
1790963456817224200,2.80722412109375,0.4380468428134918,-0.044352397322654724,-0.010785493068397045
1790963456827304200,2.81730419921875,0.33539822697639465,0.21987766027450562,-0.06730735301971436
1790963456837384200,2.82738427734375,0.27601611614227295,0.3060642182826996,0.026416204869747162
1790963456847464200,2.837464111328125,0.1798027902841568,0.27696359157562256,0.20718546211719513
1790963456857544200,2.847544189453125,0.07797549664974213,0.4570595920085907,0.2510887384414673
1790963456867624200,2.857624267578125,0.047586698085069656,0.6992005705833435,0.12389402836561203
1790963456877704200,2.8677041015625,0.14375637471675873,0.79509437084198,-0.027852360159158707
1790963456887784200,2.8777841796875,0.33950215578079224,0.6593093872070312,-0.14660297334194183
1790963456897864200,2.8878642578125,0.6185212731361389,0.3340710997581482,-0.20657682418823242
1790963456907944200,2.897944091796875,0.7742147445678711,0.022367242723703384,-0.24188795685768127
1790963456918024000,2.90802392578125,0.738883376121521,-0.2991519272327423,-0.251961350440979
1790963456928104200,2.918104248046875,0.6409493684768677,-0.6422094106674194,-0.18943965435028076
1790963456938184200,2.92818408203125,0.5197771191596985,-0.9165147542953491,-0.06727007031440735
1790963456948264200,2.93826416015625,0.3856408894062042,-0.9492953419685364,-0.0028545993845909834
1790963456958344200,2.94834423828125,0.29791638255119324,-0.827385663986206,0.009722178801894188
1790963456968424200,2.958424072265625,0.19839166104793549,-0.5849064588546753,-0.018094539642333984
1790963456978504200,2.968504150390625,-0.03294942155480385,-0.11066590994596481,-0.11043991148471832
1790963456988584200,2.978584228515625,-0.28937429189682007,0.35505279898643494,-0.1588953286409378
1790963456998664200,2.988664306640625,-0.24345526099205017,0.4964147210121155,0.011173601262271404
1790963457008744200,2.998744140625,-0.30483555793762207,0.5957660675048828,0.25431036949157715
1790963457018824200,3.00882421875,-0.49695998430252075,0.7349585890769958,0.3630104660987854
1790963457028904200,3.018904296875,-0.6786389350891113,0.7260980010032654,0.5076075792312622
1790963457038984000,3.02898388671875,-0.62889564037323,0.5640614032745361,0.644197404384613
1790963457049064200,3.039064208984375,-0.48704424500465393,0.4231375753879547,0.5791808366775513
1790963457059144200,3.049144287109375,-0.46977150440216064,0.25871482491493225,0.5140412449836731
1790963457069224200,3.05922412109375,-0.28313955664634705,-0.003357293549925089,0.5256103277206421
1790963457079304200,3.06930419921875,-0.07736855000257492,-0.1503712385892868,0.4940885901451111
1790963457089384200,3.07938427734375,-0.00018615076260175556,-0.002142093377187848,0.33152392506599426
1790963457099464200,3.089464111328125,0.0009861727012321353,0.17953050136566162,0.18290941417217255
1790963457109544200,3.099544189453125,-0.05830085277557373,0.20336152613162994,0.09204448759555817
1790963457119624200,3.109624267578125,-0.011537075974047184,0.010128953494131565,0.0700979083776474
1790963457129704200,3.1197041015625,0.16979889571666718,-0.3643628656864166,0.22693492472171783
1790963457139784200,3.1297841796875,0.39983075857162476,-0.6404104232788086,0.33647286891937256
1790963457149864200,3.1398642578125,0.5377124547958374,-0.8218523859977722,0.3360230624675751
1790963457159944000,3.14994384765625,0.550599217414856,-1.0752907991409302,0.3338368833065033
1790963457170024200,3.160024169921875,0.5322641730308533,-1.4003099203109741,0.32002943754196167
1790963457180104200,3.170104248046875,0.2893577814102173,-1.2658956050872803,0.1898735761642456
1790963457190184200,3.18018408203125,-0.2304355949163437,-0.6833885312080383,-0.24217291176319122
1790963457200264200,3.19026416015625,-0.7713159322738647,-0.03489391505718231,-0.5512564778327942
1790963457210344200,3.20034423828125,-1.0101630687713623,0.45619380474090576,-0.6661521196365356
1790963457220424200,3.210424072265625,-0.928963303565979,0.6150771975517273,-0.7179114818572998
1790963457230504200,3.220504150390625,-0.5904872417449951,0.5443199276924133,-0.7693158388137817
1790963457240584200,3.230584228515625,-0.2709691822528839,0.17865271866321564,-0.7779359221458435
1790963457250664200,3.240664306640625,-0.20988132059574127,-0.03711286187171936,-0.7910991311073303
1790963457260744200,3.250744140625,-0.1685543805360794,-0.19078843295574188,-0.8196205496788025
1790963457270824200,3.26082421875,-0.12112322449684143,-0.28750938177108765,-0.7475317120552063
1790963457280904000,3.270904052734375,-0.0661366730928421,-0.3605843782424927,-0.5999912619590759
1790963457290984200,3.280984130859375,-0.027564512565732002,-0.3430836796760559,-0.46521398425102234
1790963457301064200,3.291064208984375,0.03582325205206871,-0.283822238445282,-0.37922531366348267
1790963457311144200,3.301144287109375,0.06032726168632507,-0.06245603412389755,-0.3929331302642822
1790963457321224200,3.31122412109375,0.09003721922636032,-0.08872731775045395,-0.3799172043800354
1790963457331304200,3.32130419921875,0.12221326678991318,-0.016616638749837875,-0.3445402979850769
1790963457341384200,3.33138427734375,0.11911654472351074,0.05079302564263344,-0.30799800157546997
1790963457351464200,3.341464111328125,0.1388327181339264,-0.0017796370666474104,-0.18915176391601562
1790963457361544200,3.351544189453125,0.09772789478302002,-0.24218052625656128,0.058810096234083176
1790963457371624200,3.361624267578125,0.03303518891334534,-0.3736647665500641,0.30875441431999207
1790963457381704200,3.3717041015625,-0.20542025566101074,-0.34387490153312683,0.530034065246582
1790963457391784200,3.3817841796875,-0.37639281153678894,-0.16976279020309448,0.551925539970398
1790963457401864000,3.391864013671875,-0.2892611026763916,0.017043586820364,0.4273170232772827
1790963457411944200,3.401944091796875,-0.14553357660770416,-0.024283964186906815,0.28884240984916687
1790963457422024200,3.412024169921875,-0.030565712600946426,-0.05267539247870445,0.11955033242702484
1790963457432104200,3.422104248046875,0.05378219112753868,-0.01667770929634571,-0.10451152920722961
1790963457442184200,3.43218408203125,0.07544487714767456,-0.001891306135803461,-0.27441349625587463
1790963457452264200,3.44226416015625,0.05360722169280052,-0.02893996797502041,-0.3866249918937683
1790963457462344200,3.45234423828125,0.05071449652314186,-0.03815370798110962,-0.44620707631111145
1790963457472424200,3.462424072265625,0.0642462894320488,-0.02093876712024212,-0.4322739541530609
1790963457482504200,3.472504150390625,0.050613295286893845,-0.0320124551653862,-0.36509013175964355
1790963457492584200,3.482584228515625,0.013116520829498768,-0.013686712831258774,-0.2836269736289978
1790963457502664200,3.492664306640625,-0.05536559969186783,-0.018973354250192642,-0.19853416085243225
1790963457512744200,3.502744140625,-0.13495123386383057,-0.047505397349596024,-0.13515599071979523
1790963457522824000,3.512823974609375,-0.2013973742723465,-0.08520270884037018,-0.11658523231744766
1790963457532904200,3.522904296875,-0.2384195774793625,-0.11815639585256577,-0.1342393308877945
1790963457542984200,3.532984130859375,-0.22123153507709503,-0.08768424391746521,-0.18332883715629578
1790963457553064200,3.543064208984375,-0.17580705881118774,-0.064631387591362,-0.22264748811721802
1790963457563144200,3.553144287109375,-0.10999076068401337,-0.0395239032804966,-0.22529520094394684
1790963457573224200,3.56322412109375,-0.04255792498588562,-0.02287168987095356,-0.17239230871200562
1790963457583304200,3.57330419921875,-0.010459911078214645,-0.012252867221832275,-0.07534299045801163
1790963457593384200,3.58338427734375,-0.03884414955973625,-0.012233958579599857,0.04616745933890343
1790963457603464200,3.593464111328125,-0.08756401389837265,-0.01330002211034298,0.12662050127983093
1790963457613544200,3.603544189453125,-0.10364603996276855,-0.000603667926043272,0.14530496299266815
1790963457623624200,3.613624267578125,-0.1075236052274704,-0.013503220863640308,0.13125519454479218
1790963457633704200,3.6237041015625,-0.10674010217189789,-0.034347519278526306,0.08392736315727234
1790963457643784200,3.6337841796875,-0.08509472757577896,-0.018446046859025955,0.009709850884974003
1790963457653864200,3.6438642578125,-0.04821794107556343,-0.011624893173575401,-0.04498348757624626
1790963457663944200,3.653944091796875,-0.00862446054816246,0.024267060682177544,-0.03873810917139053
1790963457674024200,3.664024169921875,0.012638484127819538,0.032579850405454636,0.03531188517808914
1790963457684104200,3.674104248046875,0.00005717878957511857,-0.015569301322102547,0.08814980089664459
1790963457694184200,3.68418408203125,-0.016178250312805176,-0.013509878888726234,0.007491437718272209
1790963457704264200,3.69426416015625,-0.019318383187055588,0.013278592377901077,-0.09384343773126602
1790963457714344200,3.70434423828125,-0.02126488834619522,0.036967407912015915,-0.14154650270938873
1790963457724424200,3.714424072265625,-0.043253276497125626,0.031441349536180496,-0.15869593620300293
1790963457734504200,3.724504150390625,-0.07663387060165405,0.002531671430915594,-0.18320074677467346
1790963457744584200,3.734584228515625,-0.0712798461318016,0.007720042020082474,-0.27495837211608887
1790963457754664200,3.744664306640625,-0.012842374853789806,0.07332248985767365,-0.36818259954452515
1790963457764744200,3.754744140625,0.019634608179330826,0.14459826052188873,-0.3170144855976105
1790963457774824200,3.76482421875,0.02103649638593197,0.08969293534755707,-0.07829190790653229
1790963457784904200,3.774904296875,-0.01740437000989914,0.05115806311368942,0.20823439955711365
1790963457794984200,3.784984130859375,-0.07104016095399857,0.09120161831378937,0.39040711522102356
1790963457805064700,3.795064697265625,-0.0905613973736763,0.03868594765663147,0.4716545641422272
1790963457815144700,3.805144775390625,-0.09131800383329391,-0.04208426550030708,0.4139699637889862
1790963457825225000,3.815224853515625,-0.10539387911558151,-0.032286494970321655,0.2066948264837265
1790963457835304700,3.8253046875,-0.18397922813892365,0.06917408108711243,0.026004135608673096
1790963457845385000,3.835385009765625,-0.2795257568359375,-0.013438772410154343,-0.0729762390255928
1790963457855464700,3.845464599609375,-0.3992998003959656,-0.07377428561449051,-0.1504601091146469
1790963457865544700,3.855544677734375,-0.49721759557724,-0.08611617237329483,-0.2194109410047531
1790963457875625000,3.865625,-0.5802658200263977,-0.14180366694927216,-0.2826855480670929
1790963457885704700,3.87570458984375,-0.7632753252983093,-0.21703024208545685,-0.3615393340587616
1790963457895785000,3.885784912109375,-0.88202303647995,-0.18870966136455536,-0.3790386915206909
1790963457905864700,3.89586474609375,-1.077700138092041,-0.19747492671012878,-0.3674238622188568
1790963457915944700,3.90594482421875,-1.3374049663543701,-0.2419494390487671,-0.300982266664505
1790963457926024700,3.916024658203125,-1.472798228263855,-0.26146429777145386,-0.21905195713043213
1790963457936104700,3.926104736328125,-1.416964054107666,-0.2734178900718689,-0.12790420651435852
1790963457946185000,3.93618505859375,-1.092717170715332,-0.2999967932701111,-0.02632591500878334
1790963457956264700,3.9462646484375,-0.43089449405670166,-0.33884191513061523,0.055241383612155914
1790963457966345000,3.956344970703125,-0.2707732617855072,-0.12309549748897552,-0.039044905453920364
1790963457976424700,3.9664248046875,-0.3432330787181854,-0.026768160983920097,-0.004722884390503168
1790963457986504700,3.976504638671875,-0.395378053188324,-0.23765802383422852,0.09352006763219833
1790963457996585000,3.9865849609375,-0.4605692923069,-0.4772258996963501,0.21657781302928925
1790963458006662000,3.996661865234375,-0.5947086811065674,-0.5872613191604614,0.27421659231185913
1790963458016741600,4.00674169921875,-0.17201444506645203,-0.29857146739959717,0.11562110483646393
1790963458026822000,4.01682177734375,-0.04651938006281853,0.04404982179403305,-0.08081045746803284
1790963458036901600,4.026901611328125,0.10944546014070511,-0.02444108948111534,-0.07888925075531006
1790963458046982000,4.03698193359375,0.16085219383239746,0.05625668540596962,-0.08928996324539185
1790963458057061600,4.0470615234375,0.2093302458524704,0.058587752282619476,-0.12826426327228546
1790963458067142000,4.057141845703125,0.23201557993888855,0.13255758583545685,-0.20019783079624176
1790963458077222000,4.067221923828125,0.23358631134033203,0.18961606919765472,-0.23909729719161987
1790963458087301600,4.077301513671875,0.2152472585439682,0.224821999669075,-0.2698083519935608
1790963458097382000,4.0873818359375,0.16600939631462097,0.246420755982399,-0.2747509181499481
1790963458107461600,4.097461669921875,0.07239795476198196,0.2620199918746948,-0.24326567351818085
1790963458117542000,4.1075419921875,0.04337908700108528,0.2828964591026306,-0.21887564659118652
1790963458127622000,4.117621826171875,0.029571395367383957,0.34827280044555664,-0.20645706355571747
1790963458137701600,4.12770166015625,0.022213080897927284,0.32906877994537354,-0.18788045644760132
1790963458147782000,4.137781982421875,0.037326518446207047,0.3106801509857178,-0.14915089309215546
1790963458157861600,4.147861572265625,0.05785256624221802,0.31743794679641724,-0.10013914853334427
1790963458167942000,4.15794189453125,0.07806303352117538,0.31630104780197144,-0.06616812944412231
1790963458178022000,4.16802197265625,0.09566865861415863,0.24902640283107758,-0.01580163463950157
1790963458188102000,4.178101806640625,0.10937514901161194,0.23173050582408905,0.0017102478304877877
1790963458198182000,4.188181884765625,0.12177296727895737,0.2985260486602783,-0.012240988202393055
1790963458208261600,4.19826171875,0.1815958172082901,0.3960946798324585,-0.008211891166865826
1790963458218342000,4.208341796875,0.27634841203689575,0.47118860483169556,0.04215514287352562
1790963458228421600,4.218421630859375,0.3398464322090149,0.4738653898239136,0.12810121476650238
1790963458238502000,4.228501953125,0.37115800380706787,0.4586337208747864,0.22862835228443146
1790963458248582000,4.238581787109375,0.39972707629203796,0.46600133180618286,0.25393208861351013
1790963458258661600,4.24866162109375,0.3577609658241272,0.4135855436325073,0.23704154789447784
1790963458268742000,4.258741943359375,0.32009056210517883,0.5075069665908813,0.17285697162151337
1790963458278821600,4.268821533203125,0.2887597978115082,0.5523151755332947,0.15562577545642853
1790963458288902000,4.27890185546875,0.23902980983257294,0.4751455783843994,0.16202588379383087
1790963458298982000,4.28898193359375,0.16384238004684448,0.35856884717941284,0.14757823944091797
1790963458309062000,4.299061767578125,0.1107751727104187,0.25652772188186646,0.078190378844738
1790963458319142000,4.309141845703125,0.1083354502916336,0.17967022955417633,0.036163296550512314
1790963458329221600,4.3192216796875,0.14546871185302734,0.19525425136089325,0.02730109542608261
1790963458339302000,4.329302001953125,0.21274441480636597,0.2393793761730194,0.06067902594804764
1790963458349381600,4.339381591796875,0.2962840497493744,0.35494327545166016,0.13828061521053314
1790963458359462000,4.3494619140625,0.3408309817314148,0.3668270707130432,0.24754664301872253
1790963458369542000,4.3595419921875,0.42218977212905884,0.3201618194580078,0.36068251729011536
1790963458379621600,4.36962158203125,0.4595954716205597,0.25161951780319214,0.45823755860328674
1790963458389703700,4.37970361328125,0.4581426978111267,0.23961612582206726,0.5173424482345581
1790963458399784000,4.389783935546875,0.5392671227455139,0.3350648880004883,0.6067623496055603
1790963458409863700,4.39986376953125,0.589533805847168,0.4570038318634033,0.6929888129234314
1790963458419944000,4.40994384765625,0.6255289316177368,0.5146574378013611,0.810718834400177
1790963458430024000,4.42002392578125,0.7228370904922485,0.5051475763320923,0.8151003122329712
1790963458440103700,4.430103759765625,0.6969549059867859,0.42639651894569397,0.6830629110336304
1790963458450184000,4.440183837890625,0.7253308892250061,0.16450738906860352,0.6948884129524231
1790963458460263700,4.450263671875,0.626934289932251,-0.0006994016002863646,0.6946101188659668
1790963458470344000,4.460343994140625,0.5174866318702698,-0.1231619343161583,0.7085142135620117
1790963458480423700,4.470423583984375,0.41954272985458374,-0.2441094070672989,0.7094452381134033
1790963458490503700,4.480503662109375,0.34966325759887695,-0.3252308964729309,0.6645779013633728
1790963458500584000,4.490583984375,0.2609906494617462,-0.33024054765701294,0.6034559607505798
1790963458510663700,4.50066357421875,0.19656291604042053,-0.3711802661418915,0.49281227588653564
1790963458520744000,4.510743896484375,0.1331985890865326,-0.3511514365673065,0.3979310393333435
1790963458530823700,4.52082373046875,0.008656665682792664,-0.4426909387111664,0.3271293044090271
1790963458540903700,4.530903564453125,-0.1460391730070114,-0.530032753944397,0.224254310131073
1790963458550984000,4.54098388671875,-0.2281217873096466,-0.5379697680473328,0.06431925296783447
1790963458561063700,4.551063720703125,-0.2914096713066101,-0.6052556037902832,-0.036396440118551254
1790963458571144000,4.56114404296875,-0.28841736912727356,-0.6048893928527832,-0.08889853209257126
1790963458581223700,4.5712236328125,-0.27835673093795776,-0.4936920702457428,-0.08356128633022308
1790963458591304000,4.581303955078125,-0.2533230185508728,-0.5085468888282776,-0.01296754740178585
1790963458601383700,4.5913837890625,-0.2091800570487976,-0.4481578767299652,-0.12488821893930435
1790963458611463700,4.601463623046875,-0.25900593400001526,-0.34813833236694336,-0.24683676660060883
1790963458621544000,4.6115439453125,-0.3453879654407501,-0.45603495836257935,-0.3477979898452759
1790963458631623700,4.621623779296875,-0.4255096912384033,-0.46914997696876526,-0.45806190371513367
1790963458641704000,4.631703857421875,-0.5878053903579712,-0.4307416081428528,-0.5713919401168823
1790963458651783700,4.64178369140625,-0.7428160309791565,-0.5869532823562622,-0.42080801725387573
1790963458661863700,4.65186376953125,-0.4361855089664459,-0.6426202654838562,-0.2880590260028839
1790963458671944000,4.66194384765625,-0.45761117339134216,-0.453029066324234,-0.34756389260292053
1790963458682023700,4.672023681640625,-0.3448183238506317,-0.3431531488895416,-0.2781597971916199
1790963458692104000,4.68210400390625,-0.27885767817497253,-0.21636885404586792,-0.305838018655777
1790963458702183700,4.69218359375,-0.22681204974651337,-0.17658334970474243,-0.4109228849411011
1790963458712264000,4.702263916015625,-0.17075437307357788,0.02639053948223591,-0.39312365651130676
1790963458722343700,4.71234375,0.17092706263065338,0.23903994262218475,-0.37727999687194824
1790963458732423700,4.722423583984375,0.3196158707141876,0.3110526204109192,-0.18422558903694153
1790963458742504000,4.73250390625,0.4349677562713623,0.2150091826915741,0.0036612306721508503
1790963458752583700,4.742583740234375,0.45315954089164734,0.11587727814912796,0.012643273919820786
1790963458762664000,4.752663818359375,0.38447290658950806,-0.07686367630958557,-0.08947829902172089
1790963458772743700,4.76274365234375,0.30131834745407104,-0.05599221587181091,-0.2427685260772705
1790963458782823700,4.77282373046875,0.20968776941299438,-0.011324348859488964,-0.3924266993999481
1790963458792904000,4.782904052734375,0.0709429383277893,-0.043728094547986984,-0.560789942741394
1790963458802983200,4.792983154296875,0.014363021589815617,0.07428403198719025,-0.5740404725074768
1790963458813063200,4.803063232421875,0.03187783434987068,0.07399774342775345,-0.4064357280731201
1790963458823143200,4.81314306640625,-0.0808686912059784,0.11809676140546799,-0.27446094155311584
1790963458833223400,4.823223388671875,-0.32630082964897156,0.17111149430274963,-0.08568435907363892
1790963458843303200,4.83330322265625,-0.23576267063617706,0.008273320272564888,-0.1716299057006836
1790963458853383400,4.843383544921875,-0.26630300283432007,-0.06732343137264252,-0.32932284474372864
1790963458863463200,4.853463134765625,-0.1771257221698761,-0.04570202901959419,-0.41516584157943726
1790963458873543200,4.863543212890625,-0.1443675011396408,-0.06092758849263191,-0.4900829792022705
1790963458883623400,4.87362353515625,-0.22603148221969604,-0.1545584797859192,-0.5505785346031189
1790963458893703200,4.883703125,-0.2778310179710388,-0.19961915910243988,-0.5703977942466736
1790963458903783400,4.893783447265625,-0.2748323082923889,-0.2190336138010025,-0.584182858467102
1790963458913863200,4.90386328125,-0.25635528564453125,-0.2719338536262512,-0.5936831831932068
1790963458923943200,4.913943115234375,-0.16888563334941864,-0.2257777899503708,-0.5050643682479858
1790963458934023200,4.924023193359375,-0.023896481841802597,-0.11306934803724289,-0.37414729595184326
1790963458944103200,4.934103271484375,0.09822089970111847,-0.04345272108912468,-0.12248924374580383
1790963458954183400,4.944183349609375,0.150387704372406,0.01279723271727562,0.03475124016404152
1790963458964263200,4.95426318359375,0.09598544239997864,-0.01637476682662964,0.055431216955184937
1790963458974344200,4.96434423828125,-0.013006284832954407,-0.07499413937330246,0.011619288474321365
1790963458984423200,4.974423095703125,-0.09843383729457855,-0.11968570947647095,-0.06350768357515335
1790963458994504200,4.984504150390625,-0.1800605207681656,-0.1522175669670105,-0.10290569067001343
1790963459004584200,4.994584228515625,-0.2802763283252716,-0.20036618411540985,-0.07670178264379501
1790963459014664200,5.004664306640625,-0.3063018023967743,-0.19110290706157684,-0.01663445308804512
1790963459024744200,5.014744140625,-0.24750587344169617,-0.23079945147037506,0.16890877485275269
1790963459034824200,5.02482421875,-0.21436522901058197,-0.15091606974601746,0.3047446608543396
1790963459044904200,5.034904296875,-0.25718194246292114,-0.12231318652629852,0.4682249128818512
1790963459054984400,5.044984375,-0.28718751668930054,-0.08591469377279282,0.6229894161224365
1790963459065064200,5.055064208984375,-0.338377445936203,-0.0826408714056015,0.7041087746620178
1790963459075144200,5.065144287109375,-0.441179484128952,-0.05410829558968544,0.6930832862854004
1790963459085224200,5.07522412109375,-0.10737620294094086,-0.1582067459821701,0.6015331745147705
1790963459095304200,5.08530419921875,0.2112358659505844,-0.23715615272521973,0.45914140343666077
1790963459105384400,5.095384521484375,0.6383957266807556,-0.1955154985189438,0.427369087934494
1790963459115464200,5.105464111328125,1.0534323453903198,-0.08986123651266098,0.4743936061859131
1790963459125544200,5.115544189453125,1.2927030324935913,-0.0282354224473238,0.5413118600845337
1790963459135624200,5.125624267578125,1.2655906677246094,0.043698158115148544,0.623691976070404
1790963459145704200,5.1357041015625,1.037497878074646,0.06675740331411362,0.6848853230476379
1790963459155784400,5.145784423828125,0.6966789960861206,0.047731515020132065,0.6794654726982117
1790963459165864200,5.1558642578125,0.3347623348236084,0.08069133013486862,0.6274329423904419
1790963459175944400,5.1659443359375,0.03849712014198303,0.08775483071804047,0.48723989725112915
1790963459186024200,5.176024169921875,-0.09239192306995392,0.07798555493354797,0.30824509263038635
1790963459196104200,5.186104248046875,-0.05546000227332115,0.07771125435829163,0.11991007626056671
1790963459206184200,5.19618408203125,0.03704436495900154,0.06681812554597855,-0.057831425219774246
1790963459216264200,5.20626416015625,0.05876803770661354,0.06286226212978363,-0.14009195566177368
1790963459226344400,5.216344482421875,0.03235294297337532,0.05500247702002525,-0.1428866684436798
1790963459236424200,5.226424072265625,0.017700228840112686,0.04579566419124603,-0.09044422954320908
1790963459246504200,5.236504150390625,0.009897965006530285,0.045929089188575745,-0.003153798636049032
1790963459256584200,5.246584228515625,0.009958951734006405,0.045263830572366714,0.049822866916656494
1790963459266664200,5.256664306640625,0.018189452588558197,0.05239790678024292,0.04293300211429596
1790963459276744400,5.266744384765625,0.012311588041484356,0.05816258490085602,0.009489292278885841
1790963459286824200,5.27682421875,0.014167545363307,0.049063630402088165,-0.018303189426660538
1790963459296904400,5.286904541015625,0.01561470702290535,0.04758530855178833,-0.016675733029842377
1790963459306984200,5.296984130859375,0.012004791758954525,0.033599451184272766,-0.000015263358363881707
1790963459317064200,5.307064208984375,0.010532597079873085,0.03417469561100006,0.00582504877820611
1790963459327144200,5.317144287109375,0.006677404977381229,0.023483166471123695,0.0011021990794688463
1790963459337224200,5.32722412109375,0.010659096762537956,0.018658317625522614,-0.0001590740284882486
1790963459347304400,5.337304443359375,0.01311479788273573,0.020761681720614433,0.003429003059864044
1790963459357384200,5.34738427734375,0.015029610134661198,0.016207410022616386,0.002287305658683181
1790963459367464200,5.357464111328125,0.00986707303673029,0.024144694209098816,-0.0008871823083609343
1790963459377544200,5.367544189453125,0.02079109475016594,0.011708265170454979,-0.013790730386972427
1790963459387624200,5.377624267578125,0.0215812548995018,0.0015339255332946777,-0.005135989282280207
1790963459397704400,5.387704345703125,-0.01609395258128643,-0.02354266680777073,0.036835163831710815
1790963459407784200,5.3977841796875,-0.01764577627182007,-0.017073314636945724,0.022927336394786835
1790963459417864400,5.407864501953125,-0.006533471867442131,-0.03411621227860451,-0.015174242667853832
1790963459427944200,5.417944091796875,0.022594230249524117,-0.05274885147809982,-0.015585822984576225
1790963459438024200,5.428024169921875,0.018784310668706894,-0.06065577641129494,-0.0025842711329460144
1790963459448104200,5.438104248046875,-0.00042507017496973276,-0.07127086818218231,-0.008735906332731247
1790963459458184200,5.44818408203125,-0.011099020019173622,-0.06432827562093735,-0.0010731935035437346
1790963459468264400,5.458264404296875,-0.01168731227517128,-0.0721031054854393,-0.027870185673236847
1790963459478344200,5.46834423828125,-0.013825830072164536,-0.06479432433843613,-0.031058788299560547
1790963459488424200,5.478424072265625,-0.011668669991195202,-0.07520808279514313,0.004292277153581381
1790963459498504200,5.488504150390625,-0.014095342718064785,-0.05443703010678291,0.034731674939394
1790963459508584200,5.498584228515625,-0.017063168808817863,-0.05393023043870926,0.04459868744015694
1790963459518664400,5.50866455078125,-0.007094690576195717,-0.056667424738407135,0.03576285019516945
1790963459528744200,5.518744140625,0.010055000893771648,-0.0715547576546669,0.020158326253294945
1790963459538824200,5.52882421875,0.016807712614536285,-0.07496307045221329,-0.0036266325041651726
1790963459548904200,5.538904296875,0.011770876124501228,-0.0568983219563961,-0.03428840637207031
1790963459558984200,5.548984130859375,0.009662717580795288,-0.055277254432439804,-0.052772607654333115
1790963459569065200,5.559065185546875,0.008976954035460949,-0.020141638815402985,-0.03828820586204529
1790963459579144200,5.569144287109375,0.0171978659927845,-0.0036561391316354275,-0.0037976070307195187
1790963459589225200,5.57922509765625,0.03361279144883156,0.010708153247833252,0.016303932294249535
1790963459599305200,5.58930517578125,0.05179978534579277,0.026922807097434998,0.027814114466309547
1790963459609385200,5.59938525390625,0.09151710569858551,0.003598311450332403,0.029853563755750656
1790963459619465500,5.609465576171875,0.15154901146888733,0.013437094166874886,0.020959405228495598
1790963459629545200,5.619545166015625,0.18286538124084473,-0.0006100158207118511,0.000457857851870358
1790963459639625200,5.629625244140625,0.15386275947093964,0.002077646553516388,-0.008017652668058872
1790963459649705200,5.639705322265625,0.08558784425258636,0.017456602305173874,-0.014714171178638935
1790963459659785200,5.64978515625,0.04631926491856575,0.04752741754055023,-0.027243545278906822
1790963459669865200,5.659865234375,0.051053036004304886,0.048219840973615646,-0.04286937415599823
1790963459679945200,5.6699453125,0.09750628471374512,0.05666792020201683,-0.060721077024936676
1790963459690025200,5.680025146484375,0.1312839537858963,0.006702758837491274,-0.07400865852832794
1790963459700105200,5.690105224609375,0.15154793858528137,-0.030487487092614174,-0.10420170426368713
1790963459710185200,5.700185302734375,0.17283405363559723,-0.04247916862368584,-0.10738737881183624
1790963459720265200,5.71026513671875,0.18621911108493805,-0.0338132418692112,-0.06655792891979218
1790963459730345200,5.72034521484375,0.20775076746940613,-0.022973379120230675,0.001065058633685112
1790963459740425500,5.730425537109375,0.21450559794902802,-0.010655991733074188,0.0681157261133194
1790963459750505200,5.740505126953125,0.21530482172966003,0.004625758621841669,0.11866812407970428
1790963459760585200,5.750585205078125,0.21322914958000183,0.011700712144374847,0.14243817329406738
1790963459770665200,5.760665283203125,0.1823255568742752,-0.027377180755138397,0.11399747431278229
1790963459780745200,5.7707451171875,0.1626027226448059,-0.08723891526460648,0.06220298260450363
1790963459790825500,5.780825439453125,0.16530610620975494,-0.1255815178155899,0.029656223952770233
1790963459800905200,5.7909052734375,0.15061317384243011,-0.1844581514596939,-0.0341629683971405
1790963459810985700,5.80098583984375,0.15927670896053314,-0.22519280016422272,0.0006402843864634633
1790963459821066000,5.81106591796875,0.15163981914520264,-0.23502890765666962,0.015655985102057457
1790963459831145700,5.821145751953125,0.1067461222410202,-0.20712298154830933,0.00177878572139889
1790963459841226000,5.83122607421875,0.038179315626621246,-0.16181515157222748,-0.013397503644227982
1790963459851306000,5.841305908203125,-0.03314972668886185,-0.16956734657287598,-0.03479387238621712
1790963459861385700,5.8513857421875,-0.09556996077299118,-0.23297268152236938,0.0601816400885582
1790963459871466000,5.861466064453125,-0.15306414663791656,-0.3257300555706024,0.09080666303634644
1790963459881545700,5.871545654296875,-0.16383424401283264,-0.403655469417572,0.07742267847061157
1790963459891626000,5.8816259765625,-0.14233827590942383,-0.4339207112789154,0.08127947151660919
1790963459901706000,5.8917060546875,-0.10173384845256805,-0.44285961985588074,0.11372050642967224
1790963459911785700,5.90178564453125,-0.1073930636048317,-0.5028933882713318,0.12982144951820374
1790963459921866000,5.911865966796875,-0.21086379885673523,-0.5307087898254395,0.11934962868690491
1790963459931945700,5.92194580078125,-0.2198876589536667,-0.39386889338493347,0.19906044006347656
1790963459942026000,5.93202587890625,-0.23468124866485596,-0.4325654208660126,0.20336996018886566
1790963459952105700,5.942105712890625,-0.2601996660232544,-0.36392831802368164,0.19005122780799866
1790963459962186000,5.95218603515625,-0.09250679612159729,-0.17899547517299652,0.11933045089244843
1790963459972266000,5.962265869140625,0.06203218176960945,-0.10879693925380707,0.0385996513068676
1790963459982345700,5.972345703125,0.06342128664255142,-0.11558586359024048,0.03164001181721687
1790963459992426000,5.982426025390625,0.018500419333577156,-0.09894883632659912,0.03533914312720299
1790963460002505700,5.992505615234375,-0.03838549926877022,-0.08546018600463867,0.07531692087650299
1790963460012586000,6.0025859375,-0.0970701202750206,-0.08805970102548599,0.08437912166118622
1790963460022666000,6.012666015625,-0.11999327689409256,-0.09583985805511475,0.11820898950099945
1790963460032746800,6.022746826171875,-0.10229950398206711,-0.05187453329563141,0.003718099556863308
1790963460042827000,6.032826904296875,-0.07614219933748245,-0.05096586421132088,-0.02848990447819233
1790963460052907000,6.042906982421875,-0.030905213207006454,-0.041554518043994904,0.034838203340768814
1790963460062986800,6.05298681640625,-0.004456563387066126,-0.031447023153305054,0.03181258589029312
1790963460073067000,6.06306689453125,-0.0012397312093526125,-0.01183896791189909,0.02932785451412201
1790963460083146800,6.073146728515625,0.011533854529261589,0.018183911219239235,0.013003743253648281
1790963460093227000,6.08322705078125,0.007956963032484055,0.04831704497337341,-0.01107283029705286
1790963460103306800,6.093306640625,0.0023624603636562824,0.06557273864746094,-0.015925908461213112
1790963460113386800,6.10338671875,0.012457971461117268,0.07530845701694489,-0.027981506660580635
1790963460123467000,6.113467041015625,0.01762077584862709,0.08132746070623398,-0.021464752033352852
1790963460133546800,6.123546630859375,0.0262928269803524,0.09040617942810059,-0.011479228734970093
1790963460143627000,6.133626953125,0.04648678004741669,0.10453344881534576,-0.004599751438945532
1790963460153706800,6.143706787109375,0.0681217685341835,0.1125173419713974,0.0059474315494298935
1790963460163787000,6.153787109375,0.0785062313079834,0.10982195287942886,0.0025886530056595802
1790963460173867000,6.163866943359375,0.08601794391870499,0.12265893071889877,-0.011955401860177517
1790963460183946800,6.17394677734375,0.08199097961187363,0.1297309398651123,-0.0018092910759150982
1790963460194027000,6.184027099609375,0.07950571179389954,0.13343672454357147,0.0059626116417348385
1790963460204106800,6.194106689453125,0.07476795464754105,0.13031737506389618,0.029248226433992386
1790963460214187000,6.20418701171875,0.08415240049362183,0.13330437242984772,0.052839573472738266
1790963460224266800,6.214266845703125,0.09166251122951508,0.118413046002388,0.09108735620975494
1790963460234346800,6.2243466796875,0.10754907131195068,0.15152572095394135,0.12410975992679596
1790963460244427000,6.234427001953125,0.10739061236381531,0.13264018297195435,0.13410407304763794
1790963460254506800,6.2445068359375,0.10347016900777817,0.13916438817977905,0.10907568037509918
1790963460264587000,6.2545869140625,0.08558917790651321,0.15240216255187988,0.07301221787929535
1790963460274666800,6.264666748046875,0.06096052750945091,0.14691738784313202,0.04817531257867813
1790963460284747000,6.2747470703125,0.05329488590359688,0.16223642230033875,0.02902239002287388
1790963460294827000,6.284826904296875,0.05908805876970291,0.17107704281806946,0.028931310400366783
1790963460304906800,6.29490673828125,0.029005790129303932,0.18901529908180237,0.019800396636128426
1790963460314987000,6.304987060546875,-0.0005771366413682699,0.1951400488615036,0.01404530555009842
1790963460325066800,6.315066650390625,0.000838599749840796,0.1955922394990921,0.021134374663233757
1790963460335147000,6.32514697265625,0.014613534323871136,0.1913548856973648,0.03487974777817726
1790963460345226800,6.335226806640625,0.020646659657359123,0.18623550236225128,0.034415826201438904
1790963460355306800,6.345306640625,0.016675088554620743,0.18498460948467255,0.039480891078710556
1790963460365387000,6.355386962890625,0.015157351270318031,0.18748559057712555,0.029261808842420578
1790963460375466800,6.365466796875,0.024686675518751144,0.18372227251529694,0.026832208037376404
1790963460385547000,6.375547119140625,0.03114990144968033,0.17557965219020844,0.02199697121977806
1790963460395626800,6.385626708984375,0.021809129044413567,0.16803625226020813,0.019963648170232773
1790963460405707000,6.39570703125,0.01961654983460903,0.15816044807434082,0.021914945915341377
1790963460415788000,6.4057880859375,0.018987243995070457,0.15775032341480255,0.025437243282794952
1790963460425867800,6.41586767578125,0.024133004248142242,0.15203757584095,0.02662394754588604
1790963460435947800,6.42594775390625,0.023200705647468567,0.1451224833726883,0.021495798602700233
1790963460446027800,6.43602783203125,0.02232372760772705,0.1337909996509552,0.011690838262438774
1790963460456107800,6.446107666015625,0.023498181253671646,0.12572215497493744,0.012430930510163307
1790963460466188000,6.45618798828125,0.0218944251537323,0.11711668968200684,0.01683846302330494
1790963460476267800,6.466267822265625,0.023421216756105423,0.11310490220785141,0.011592035181820393
1790963460486348000,6.47634814453125,0.02375411055982113,0.108231320977211,0.008589853532612324
1790963460496427800,6.486427734375,0.021981777623295784,0.10113959014415741,0.0070990161038935184
1790963460506507800,6.4965078125,0.024682221934199333,0.09905166923999786,0.010423972271382809
1790963460516588000,6.506588134765625,0.023734670132398605,0.09678718447685242,0.009825293906033039
1790963460526667800,6.516667724609375,0.02677866257727146,0.09684310853481293,0.008487056009471416
1790963460536748000,6.526748046875,0.02334398403763771,0.1004764586687088,0.004871015436947346
1790963460546827800,6.536827880859375,0.026060407981276512,0.09826231002807617,-0.006058597471565008
1790963460556907800,6.54690771484375,0.02695576287806034,0.09572218358516693,0.005794599652290344
1790963460566988000,6.556988037109375,0.02906898222863674,0.08735719323158264,0.0184699147939682
1790963460577067800,6.56706787109375,0.025823652744293213,0.10473378747701645,-0.0005096351960673928
1790963460587148000,6.57714794921875,0.024803662672638893,0.10024449974298477,0.004281657747924328
1790963460597227800,6.587227783203125,0.024215903133153915,0.09950174391269684,0.0027247739490121603
1790963460607308000,6.59730810546875,0.022179916501045227,0.10052972286939621,0.0013697575777769089
1790963460617387800,6.6073876953125,0.025592224672436714,0.09291308373212814,0.012193377129733562
1790963460627467800,6.6174677734375,0.02755417488515377,0.09897337108850479,0.011307609267532825
1790963460637548000,6.627548095703125,0.03380781039595604,0.10609199851751328,0.013038664124906063
1790963460647627800,6.637627685546875,0.040826037526130676,0.11101405322551727,0.008808765560388565
1790963460657708000,6.6477080078125,0.02846178039908409,0.1146540641784668,-0.0011171023361384869
1790963460667787800,6.657787841796875,0.028592275455594063,0.11894628405570984,-0.0002864623093046248
1790963460677867800,6.66786767578125,0.027587732300162315,0.11298825591802597,0.01298673264682293
1790963460687948000,6.677947998046875,0.029678046703338623,0.11746130138635635,0.015460542403161526
1790963460698027800,6.68802783203125,0.033000871539115906,0.11896971613168716,0.01599397324025631
1790963460708108000,6.69810791015625,0.042385317385196686,0.12168986350297928,0.006896615959703922
1790963460718187800,6.708187744140625,0.04278905317187309,0.12195006757974625,0.004939991515129805
1790963460728268000,6.71826806640625,0.04946985840797424,0.12031248211860657,0.0038235941901803017
1790963460738349000,6.72834912109375,0.045274313539266586,0.12257856875658035,0.0015244872774928808
1790963460748428800,6.7384287109375,0.04361702874302864,0.1302628517150879,0.0019175698980689049
1790963460758508800,6.7485087890625,0.042444441467523575,0.13583923876285553,0.010484426282346249
1790963460768588800,6.7585888671875,0.04570388421416283,0.1435544192790985,0.015835782513022423
1790963460778668800,6.768668701171875,0.05018278583884239,0.14632436633110046,0.012967557646334171
1790963460788749000,6.7787490234375,0.05793524906039238,0.15424221754074097,0.009603186510503292
1790963460798828800,6.788828857421875,0.06270843744277954,0.17762184143066406,-0.011291975155472755
1790963460808908800,6.79890869140625,0.05316579341888428,0.2031695395708084,0.009112631902098656
1790963460818988800,6.80898876953125,0.04920487478375435,0.19475795328617096,0.05266144126653671
1790963460829068500,6.819068603515625,0.06136167049407959,0.23311705887317657,0.013637342490255833
1790963460839148800,6.829148681640625,0.057840440422296524,0.23519352078437805,-0.0034268617164343596
1790963460849228800,6.839228759765625,0.070258229970932,0.24032729864120483,0.03719060495495796
1790963460859308800,6.849308837890625,0.06783129274845123,0.24573057889938354,0.026278570294380188
1790963460869388800,6.859388916015625,0.05518713220953941,0.2743244171142578,0.038301676511764526
1790963460879468800,6.86946875,0.06646083295345306,0.2827424108982086,0.027743307873606682
1790963460889548800,6.879548828125,0.04245562478899956,0.30426234006881714,0.031135642901062965
1790963460899628500,6.889628662109375,0.06461099535226822,0.30117785930633545,0.03326963260769844
1790963460909708800,6.899708740234375,0.055202845484018326,0.3180018365383148,0.05781492218375206
1790963460919788800,6.909788818359375,0.06702116131782532,0.31935474276542664,0.07453131675720215
1790963460929868800,6.919868896484375,0.07625513523817062,0.3170742690563202,0.043590713292360306
1790963460939948800,6.92994873046875,0.04758540540933609,0.28106459975242615,0.0687224268913269
1790963460950028500,6.940028564453125,0.03453165665268898,0.24093449115753174,0.0735350251197815
1790963460960108800,6.95010888671875,0.02942451275885105,0.25313469767570496,0.050452347844839096
1790963460970188800,6.960188720703125,0.026744041591882706,0.24671807885169983,0.010593350045382977
1790963460980268800,6.970268798828125,0.025591425597667694,0.24863556027412415,0.00546676479279995
1790963460990348800,6.980348876953125,0.030817879363894463,0.21944385766983032,0.0339716412127018
1790963461000428800,6.9904287109375,0.02906258963048458,0.19442105293273926,0.06028474122285843
1790963461010508800,7.0005087890625,0.017828578129410744,0.16656999289989471,0.06430637836456299
1790963461020588500,7.010588623046875,0.006459276657551527,0.15308639407157898,0.057729702442884445
1790963461030668800,7.020668701171875,-0.003629842773079872,0.12447287887334824,0.04760169982910156
1790963461040749800,7.030749755859375,0.007769818417727947,0.08063031733036041,0.02363884449005127
1790963461050829600,7.04082958984375,0.0012480029836297035,0.03697710856795311,0.01925528049468994
1790963461060909800,7.050909912109375,0.0023212567903101444,-0.027721989899873734,0.025894274935126305
1790963461070989800,7.06098974609375,0.007873947732150555,-0.0866343080997467,0.018486959859728813
1790963461081069800,7.07106982421875,0.004354847129434347,-0.16220736503601074,0.006690753623843193
1790963461091149800,7.08114990234375,-0.031459610909223557,-0.2247658222913742,0.008287318982183933
1790963461101229600,7.0912294921875,-0.05944357439875603,-0.2584089934825897,-0.016578616574406624
1790963461111309800,7.101309814453125,-0.051967814564704895,-0.2789206802845001,-0.06671608984470367
1790963461121389800,7.111389892578125,-0.06307265907526016,-0.329890638589859,-0.05543866381049156
1790963461131469800,7.1214697265625,-0.06811162829399109,-0.41439300775527954,-0.017255058512091637
1790963461141549800,7.1315498046875,-0.07449762523174286,-0.5151779055595398,-0.028497859835624695
1790963461151629600,7.141629638671875,-0.09948579967021942,-0.5672123432159424,-0.07324882596731186
1790963461161709800,7.151709716796875,-0.09716245532035828,-0.6142799854278564,-0.13682886958122253
1790963461171789600,7.16178955078125,-0.08062395453453064,-0.6725587248802185,-0.14277197420597076
1790963461181869800,7.171869873046875,-0.07777970284223557,-0.7475706934928894,-0.10683740675449371
1790963461191949800,7.18194970703125,-0.08918522298336029,-0.7975020408630371,-0.10230204463005066
1790963461202029800,7.19202978515625,-0.09710998833179474,-0.8328285813331604,-0.1143222227692604
1790963461212109800,7.20210986328125,-0.08728612214326859,-0.8478913903236389,-0.14179033041000366
1790963461222189600,7.212189453125,-0.07667102664709091,-0.8853317499160767,-0.1781560629606247
1790963461232269800,7.222269775390625,-0.0896158516407013,-0.9330571889877319,-0.16082873940467834
1790963461242349800,7.232349853515625,-0.08450258523225784,-0.9816473722457886,-0.14050908386707306
1790963461252429800,7.242429931640625,-0.10258384793996811,-1.0017726421356201,-0.13755643367767334
1790963461262509800,7.252509765625,-0.09372537583112717,-0.9947314858436584,-0.15950354933738708
1790963461272589600,7.262589599609375,-0.07841779291629791,-0.9839951992034912,-0.16804270446300507
1790963461282669800,7.272669921875,-0.07153112441301346,-0.9993693828582764,-0.16622138023376465
1790963461292749600,7.28274951171875,-0.07385100424289703,-1.0089246034622192,-0.155886709690094
1790963461302829800,7.292829833984375,-0.06269209831953049,-1.0071173906326294,-0.13913117349147797
1790963461312909800,7.302909912109375,-0.05416066199541092,-0.9931015968322754,-0.11850231885910034
1790963461322990600,7.312990478515625,-0.03640829771757126,-0.9667299389839172,-0.13979429006576538
1790963461333070800,7.32307080078125,-0.0366639606654644,-0.9431750774383545,-0.14833398163318634
1790963461343150800,7.33315087890625,-0.028390316292643547,-0.9135934710502625,-0.12650565803050995
1790963461353230600,7.343230712890625,-0.019069785252213478,-0.8717306852340698,-0.11792095005512238
1790963461363310800,7.353310791015625,-0.02715061418712139,-0.8216180205345154,-0.11274456977844238
1790963461373390600,7.363390625,-0.02461608499288559,-0.7739892601966858,-0.0997917503118515
1790963461383470800,7.373470947265625,-0.017366427928209305,-0.7339541912078857,-0.07888966798782349
1790963461393550600,7.383550537109375,-0.014559188857674599,-0.6953892111778259,-0.0831427350640297
1790963461403630800,7.393630859375,-0.001151238800957799,-0.664820671081543,-0.09735628962516785
1790963461413710800,7.4037109375,0.0006791518535465002,-0.6363898515701294,-0.0820804014801979
1790963461423790600,7.41379052734375,0.0020362986251711845,-0.6159204840660095,-0.059845663607120514
1790963461433870800,7.423870849609375,0.004311170894652605,-0.5790799260139465,-0.06850094348192215
1790963461443950600,7.43395068359375,-0.00045429158490151167,-0.5400869846343994,-0.06597577780485153
1790963461454030800,7.44403076171875,0.01156668458133936,-0.4813499450683594,-0.05256063863635063
1790963461464110800,7.45411083984375,0.03300566226243973,-0.4157501757144928,-0.06121617928147316
1790963461474190600,7.464190673828125,0.027380002662539482,-0.37014061212539673,-0.04712512716650963
1790963461484270800,7.474270751953125,0.03242988884449005,-0.32750365138053894,-0.03034295327961445
1790963461494350600,7.4843505859375,0.035762567073106766,-0.2932969629764557,-0.032428741455078125
1790963461504430800,7.494430908203125,0.023437725380063057,-0.25705718994140625,-0.03900568187236786
1790963461514510600,7.504510498046875,0.027595985680818558,-0.2228025496006012,-0.03510761260986328
1790963461524590800,7.5145908203125,0.04317228123545647,-0.1834476888179779,-0.028354370966553688
1790963461534670800,7.5246708984375,0.05515331029891968,-0.13727140426635742,-0.019136905670166016
1790963461544750600,7.53475048828125,0.06002556160092354,-0.10772762447595596,-0.026874186471104622
1790963461554830800,7.544830810546875,0.0691618025302887,-0.046722330152988434,-0.015388771891593933
1790963461564910600,7.55491064453125,0.09487835317850113,-0.01047511026263237,-0.001091591315343976
1790963461574990800,7.564990966796875,0.07786847651004791,0.04590374231338501,0.026612207293510437
1790963461585071900,7.57507177734375,0.09360776096582413,0.07893332839012146,0.008712835609912872
1790963461595151600,7.585151611328125,0.08158890902996063,0.11419118940830231,-0.005629085004329681
1790963461605231900,7.59523193359375,0.07201378047466278,0.120491161942482,0.006373515352606773
1790963461615312000,7.605311767578125,0.04754199460148811,0.12726996839046478,0.03336145728826523
1790963461625391600,7.6153916015625,0.06336836516857147,0.1344730257987976,0.008139723911881447
1790963461635472000,7.625471923828125,0.04524368792772293,0.14198607206344604,-0.008921017870306969
1790963461645551600,7.635551513671875,0.05599913001060486,0.1333526372909546,0.0010277521796524525
1790963461655632000,7.6456318359375,0.04608071967959404,0.13577796518802643,0.01086333952844143
1790963461665711600,7.655711669921875,0.030115602537989616,0.1480703204870224,0.027396243065595627
1790963461675791600,7.66579150390625,0.03416573628783226,0.1725623458623886,0.009345071390271187
1790963461685871900,7.675871826171875,0.04224443435668945,0.19398508965969086,-0.007632847409695387
1790963461695951600,7.68595166015625,0.04595022276043892,0.1982133835554123,0.010612735524773598
1790963461706031900,7.696031982421875,0.04890739917755127,0.18827420473098755,0.039476875215768814
1790963461716111600,7.706111572265625,0.04102550446987152,0.1945749819278717,0.027847647666931152
1790963461726191900,7.71619189453125,0.037621986120939255,0.20355994999408722,0.008932281285524368
1790963461736272000,7.72627197265625,0.032853864133358,0.20309069752693176,0.007559953723102808
1790963461746351600,7.7363515625,0.038285911083221436,0.19219091534614563,0.013087345287203789
1790963461756432000,7.746431884765625,0.03860309347510338,0.1732925921678543,0.023150896653532982
1790963461766511600,7.75651171875,0.02917470782995224,0.15362673997879028,0.02771422266960144
1790963461776592000,7.766591796875,0.035392653197050095,0.15688832104206085,0.016129206866025925
1790963461786671600,7.776671630859375,0.02581220120191574,0.1384698897600174,0.006526114419102669
1790963461796751600,7.786751708984375,0.021504804491996765,0.10861212760210037,0.013616781681776047
1790963461806832000,7.79683203125,0.006910413969308138,0.08669617772102356,0.012771759182214737
1790963461816912000,7.806911865234375,0.034668806940317154,0.1008058711886406,-0.03568205609917641
1790963461826992000,7.8169921875,0.0012005968019366264,0.10966034978628159,-0.017312906682491302
1790963461837073200,7.8270732421875,0.035995859652757645,0.08063908666372299,0.036465372890233994
1790963461847153000,7.83715283203125,0.02893129549920559,0.038657013326883316,0.03011213429272175
1790963461857233200,7.847233154296875,0.007691785227507353,0.003554421942681074,-0.0064306966960430145
1790963461867313200,7.857313232421875,0.01310492679476738,-0.06010977551341057,-0.009194791316986084
1790963461877393000,7.867392822265625,-0.014197268523275852,-0.08155301213264465,0.02494879625737667
1790963461887473200,7.87747314453125,0.028907593339681625,-0.11361880600452423,-0.02277451753616333
1790963461897553000,7.887552978515625,-0.019701221957802773,-0.14137746393680573,-0.029257450252771378
1790963461907633200,7.897633056640625,0.0026411006692796946,-0.17339877784252167,-0.0230173971503973
1790963461917713000,7.907712890625,-0.026649409905076027,-0.1875670701265335,-0.007622194942086935
1790963461927793200,7.917793212890625,-0.015545892529189587,-0.21736784279346466,0.001693009864538908
1790963461937873200,7.927873046875,-0.015477449633181095,-0.2448415458202362,-0.03377150744199753
1790963461947953000,7.937952880859375,-0.02541317045688629,-0.2721618413925171,-0.049334753304719925
1790963461958033200,7.948033203125,-0.01584603078663349,-0.3251853883266449,-0.030574915930628777
1790963461968113000,7.95811279296875,-0.01523616723716259,-0.3530987799167633,-0.008523674681782722
1790963461978193200,7.968193115234375,-0.009404377080500126,-0.3724117577075958,-0.04599994421005249
1790963461988273200,7.978273193359375,-0.008926872164011002,-0.3971431851387024,-0.06995107978582382
1790963461998353000,7.988352783203125,0.003237115917727351,-0.41985464096069336,-0.06771562248468399
1790963462008430800,7.998430908203125,-0.009378278627991676,-0.43560564517974854,-0.035013604909181595
1790963462018511000,8.008510986328124,-0.015701686963438988,-0.4505251944065094,-0.008794251829385757
1790963462028591000,8.018591064453124,-0.027002545073628426,-0.4557734727859497,-0.028756242245435715
1790963462038671000,8.028671142578125,-0.01908789575099945,-0.43906375765800476,-0.07232875376939774
1790963462048751000,8.038751220703125,-0.002898008096963167,-0.43135228753089905,-0.07002245634794235
1790963462058831000,8.0488310546875,0.005685626063495874,-0.4371209740638733,-0.035808026790618896
1790963462068912000,8.058912109375,0.0064393007196486,-0.4528336226940155,-0.020647715777158737
1790963462078992100,8.0689921875,-0.002994680777192116,-0.4762020707130432,-0.03740032762289047
1790963462089071900,8.07907177734375,-0.011835310608148575,-0.4916641116142273,-0.04209708049893379
1790963462099152100,8.089152099609375,-0.009099978022277355,-0.4980650246143341,-0.051629066467285156
1790963462109231900,8.09923193359375,-0.014426833018660545,-0.48933809995651245,-0.05127939209342003
1790963462119312100,8.10931201171875,-0.009691199287772179,-0.48143064975738525,-0.029197795316576958
1790963462129392000,8.11939208984375,0.003180124331265688,-0.46373048424720764,-0.02920232154428959
1790963462139472100,8.12947216796875,-0.004728132858872414,-0.43572548031806946,-0.03618432953953743
1790963462149552000,8.13955224609375,-0.00834523793309927,-0.39834216237068176,-0.03359946608543396
1790963462159632000,8.1496318359375,0.00943109579384327,-0.36746838688850403,-0.020589658990502357
1790963462169712000,8.159712158203124,0.026488643139600754,-0.3299420475959778,-0.034831445664167404
1790963462179792000,8.1697919921875,0.004757780581712723,-0.312404602766037,-0.022928180173039436
1790963462189872000,8.1798720703125,0.013560326769948006,-0.29975247383117676,-0.010578038170933723
1790963462199952100,8.1899521484375,0.02952731028199196,-0.2543649971485138,-0.026245681568980217
1790963462210031900,8.200031982421875,0.028371764346957207,-0.20601771771907806,-0.014378901571035385
1790963462220112100,8.210112060546875,0.053562603890895844,-0.16084223985671997,-0.004938527476042509
1790963462230191900,8.22019189453125,0.06625363230705261,-0.11425130814313889,-0.013537608087062836
1790963462240272100,8.230272216796875,0.06667441129684448,-0.07107933610677719,-0.009928759187459946
1790963462250352000,8.24035205078125,0.0722270980477333,-0.015493039041757584,0.002657074248418212
1790963462260432100,8.25043212890625,0.06889628618955612,0.04092602804303169,0.0014719674363732338
1790963462270512000,8.26051220703125,0.07773824781179428,0.08898036926984787,-0.010018240660429
1790963462280592000,8.270591796875,0.09485731273889542,0.1152748242020607,-0.003674857784062624
1790963462290673000,8.2806728515625,0.101772740483284,0.10848962515592575,0.02476850152015686
1790963462300753200,8.290753173828126,0.07502847909927368,0.06686628609895706,0.02501537650823593
1790963462310833000,8.3008330078125,0.07017220556735992,0.07659241557121277,0.02182677388191223
1790963462320913200,8.3109130859375,0.08250024169683456,0.0875430628657341,-0.01091279648244381
1790963462330993000,8.320992919921874,0.060537952929735184,0.13571777939796448,0.0031939675100147724
1790963462341073200,8.3310732421875,0.08573012799024582,0.1464463323354721,-0.0003919789451174438
1790963462351153200,8.341153076171874,0.06328687071800232,0.1407783180475235,0.011422868818044662
1790963462361233000,8.35123291015625,0.07910897582769394,0.10880361497402191,0.028838610276579857
1790963462371313200,8.361313232421875,0.07292884588241577,0.09178148210048676,0.030078578740358353
1790963462381393000,8.371392822265625,0.07351527363061905,0.06448328495025635,0.004581207875162363
1790963462391473200,8.38147314453125,0.08868090808391571,0.019115537405014038,-0.022966796532273293
1790963462401553200,8.39155322265625,0.08077318221330643,-0.04890958592295647,-0.00197229883633554
1790963462411633000,8.4016328125,0.06239284574985504,-0.1065228134393692,0.024387668818235397
1790963462421713200,8.411713134765625,0.04841604456305504,-0.11183981597423553,0.015391778200864792
1790963462431793000,8.42179296875,0.040997542440891266,-0.082776740193367,-0.009389203041791916
1790963462441873200,8.431873046875,0.031967829912900925,-0.050402551889419556,-0.020976882427930832
1790963462451953000,8.441952880859375,0.024354401975870132,-0.047185420989990234,-0.0026080398820340633
1790963462462033200,8.452033203125,0.016788361594080925,-0.07483303546905518,0.01123160868883133
1790963462472113200,8.462113037109376,0.02982267178595066,-0.10538215190172195,0.004597142338752747
1790963462482193000,8.47219287109375,0.03750775381922722,-0.1221667230129242,-0.010892868041992188
1790963462492273200,8.482273193359376,0.041523002088069916,-0.12716014683246613,-0.01921258307993412
1790963462502353000,8.492352783203126,0.05003046989440918,-0.12168815732002258,-0.01788153499364853
1790963462512434000,8.502433837890624,0.049451231956481934,-0.13116128742694855,-0.01909247413277626
1790963462522514200,8.51251416015625,0.05038067698478699,-0.14207199215888977,0.004692750051617622
1790963462532594000,8.522593994140625,0.04706983640789986,-0.13664500415325165,0.019859718158841133
1790963462542674200,8.532674072265625,0.03500491753220558,-0.11003469675779343,-0.0008239882881753147
1790963462552754000,8.54275390625,0.03107941709458828,-0.07721922546625137,-0.021591585129499435
1790963462562834000,8.552833984375,0.02428116649389267,-0.0601198673248291,-0.02686357870697975
1790963462572914200,8.5629140625,0.03677938133478165,-0.06309621036052704,-0.016305210068821907
1790963462582994000,8.572993896484375,0.05252345651388168,-0.07714518904685974,0.0009653895976953208
1790963462593074200,8.58307421875,0.05119214206933975,-0.08271358907222748,0.00798361748456955
1790963462603154000,8.59315380859375,0.04526181519031525,-0.07824613898992538,0.0038647730834782124
1790963462613234000,8.60323388671875,0.0353039875626564,-0.058080680668354034,-0.010111496783792973
1790963462623314200,8.613314208984375,0.029560083523392677,-0.04884936660528183,-0.01867382600903511
1790963462633394000,8.623393798828126,0.028352873399853706,-0.046704456210136414,-0.015695080161094666
1790963462643474200,8.63347412109375,0.034182265400886536,-0.04110889136791229,-0.008134366013109684
1790963462653554000,8.643553955078126,0.03342805802822113,-0.025589849799871445,0.0069915903732180595
1790963462663634200,8.65363427734375,0.04190037399530411,0.005913481116294861,0.020595282316207886
1790963462673714000,8.6637138671875,0.040198348462581635,0.04687768965959549,0.01268276572227478
1790963462683794000,8.6737939453125,0.027157112956047058,0.06801706552505493,-0.002939869649708271
1790963462693874200,8.683874267578124,0.016075700521469116,0.0722632110118866,0.00490553630515933
1790963462703954000,8.693953857421874,0.02097724750638008,0.06989672034978867,0.001385370036587119
1790963462714035000,8.704034912109375,0.016265317797660828,0.04803749918937683,-0.002989937085658312
1790963462724115200,8.714115234375,0.029357150197029114,0.02774394489824772,-0.005139108281582594
1790963462734195000,8.72419482421875,0.048922061920166016,0.052082836627960205,-0.048898838460445404
1790963462744275200,8.734275146484375,0.0312514565885067,0.038732677698135376,0.02935441955924034
1790963462754355000,8.74435498046875,0.05699516832828522,0.05411163717508316,0.09479361027479172
1790963462764435000,8.75443505859375,0.01717851497232914,0.06279140710830688,0.011630283668637276
1790963462774515200,8.76451513671875,-0.00048649858217686415,0.0940108448266983,-0.11586055904626846
1790963462784595000,8.774594970703125,-0.010754316113889217,0.11016771197319031,-0.039224907755851746
1790963462794675200,8.78467529296875,-0.016109135001897812,0.08669114857912064,0.10869184881448746
1790963462804755000,8.7947548828125,0.03207996487617493,0.09020332247018814,0.09407562762498856
1790963462814834200,8.804834228515626,0.06629146635532379,0.05838414281606674,0.010583927854895592
1790963462824914200,8.8149140625,0.06236250326037407,0.0025629582814872265,-0.03854260593652725
1790963462834994200,8.824994140625,0.047363582998514175,-0.06219127029180527,-0.005069066770374775
1790963462845074200,8.83507421875,0.044404275715351105,-0.10671666264533997,0.028389822691679
1790963462855154000,8.84515380859375,0.017157742753624916,-0.12259522825479507,0.01700933650135994
1790963462865234200,8.855234130859374,0.015460243448615074,-0.1518372744321823,-0.027231361716985703
1790963462875314200,8.865314208984374,-0.04288562014698982,-0.19283130764961243,0.007311702705919743
1790963462885394200,8.875394287109375,-0.04503905400633812,-0.20386238396167755,-0.010623089969158173
1790963462895474200,8.88547412109375,-0.0479179285466671,-0.16210108995437622,-0.018933217972517014
1790963462905554200,8.89555419921875,-0.04301558434963226,-0.1609218418598175,0.023484280332922935
1790963462915635200,8.90563525390625,0.01513081043958664,-0.14822176098823547,0.003337200963869691
1790963462925715200,8.915715087890625,0.0020027579739689827,-0.1569281667470932,-0.01902989111840725
1790963462935795000,8.925794921875,0.0002599854487925768,-0.1721566617488861,-0.021812893450260162
1790963462945875200,8.935875244140625,0.001894101151265204,-0.15522320568561554,-0.014295056462287903
1790963462955955000,8.945954833984375,-0.001366406911984086,-0.12924008071422577,-0.007264843210577965
1790963462966035200,8.95603515625,0.0021369813475757837,-0.10932176560163498,-0.024843571707606316
1790963462976115200,8.966115234375,-0.01657358929514885,-0.11209571361541748,-0.024061933159828186
1790963462986195200,8.9761953125,-0.02205384150147438,-0.1045062392950058,0.01749536395072937
1790963462996275200,8.986275146484376,-0.010202775709331036,-0.10010909289121628,0.0659843385219574
1790963463006355000,8.99635498046875,-0.015942420810461044,-0.07933377474546432,0.04933132231235504
1790963463016435200,9.006435302734374,-0.001512348186224699,-0.05745936930179596,-0.007709857542067766
1790963463026515000,9.016514892578124,-0.014058765955269337,-0.04434516280889511,-0.06752312183380127
1790963463036595200,9.02659521484375,-0.03675315901637077,-0.03815331310033798,-0.03465865179896355
1790963463046675200,9.03667529296875,-0.03235441818833351,-0.050805456936359406,0.036834973841905594
1790963463056755000,9.0467548828125,-0.05358859896659851,-0.05915819853544235,0.0378299318253994
1790963463066835200,9.056835205078125,-0.06574112921953201,-0.060476191341876984,-0.005008346866816282
1790963463076915000,9.0669150390625,-0.06622156500816345,-0.06442459672689438,-0.027302734553813934
1790963463086995200,9.0769951171875,-0.07793654501438141,-0.06550983339548111,0.0006255702464841306
1790963463097075200,9.0870751953125,-0.07984789460897446,-0.06563074141740799,0.025477923452854156
1790963463107155200,9.0971552734375,-0.07063522189855576,-0.07000605016946793,0.004459989722818136
1790963463117236200,9.107236328125,-0.08506875485181808,-0.07776730507612228,-0.027183691039681435
1790963463127316200,9.117316162109375,-0.09612061083316803,-0.08915843814611435,-0.011401265859603882
1790963463137396200,9.127396240234376,-0.09483456611633301,-0.10243190079927444,0.013387437909841537
1790963463147476200,9.137476318359376,-0.1051788181066513,-0.12011981755495071,0.03390975669026375
1790963463157556000,9.147555908203126,-0.11107984930276871,-0.13114982843399048,0.008559126406908035
1790963463167636200,9.15763623046875,-0.11473797261714935,-0.1418248414993286,-0.024187101051211357
1790963463177716000,9.167716064453124,-0.12569421529769897,-0.15504424273967743,-0.022858982905745506
1790963463187796200,9.177796142578124,-0.1282939910888672,-0.15883100032806396,-0.001506556523963809
1790963463197876200,9.187876220703124,-0.13053131103515625,-0.15702350437641144,-0.017241578549146652
1790963463207956000,9.1979560546875,-0.13085035979747772,-0.15874071419239044,-0.012846563011407852
1790963463218036200,9.2080361328125,-0.1343524158000946,-0.17201603949069977,0.015380281023681164
1790963463228116000,9.218115966796875,-0.1389429122209549,-0.18636594712734222,0.013828190974891186
1790963463238196200,9.2281962890625,-0.14534461498260498,-0.1918262243270874,0.01876622438430786
1790963463248276200,9.238276123046875,-0.14102256298065186,-0.19620287418365479,-0.0026948589365929365
1790963463258356000,9.24835595703125,-0.15376712381839752,-0.19219960272312164,-0.027968524023890495
1790963463268436200,9.258436279296875,-0.1544180065393448,-0.18989624083042145,-0.007775371428579092
1790963463278516000,9.268515869140625,-0.13923878967761993,-0.20431938767433167,-0.029972819611430168
1790963463288596200,9.27859619140625,-0.14754144847393036,-0.21678484976291656,-0.02420894056558609
1790963463298676000,9.288676025390625,-0.14256027340888977,-0.24006512761116028,-0.012791967950761318
1790963463308757000,9.298757080078126,-0.13881000876426697,-0.2497401237487793,0.008159120567142963
1790963463318837200,9.308837158203126,-0.1420729160308838,-0.24984878301620483,0.010231858119368553
1790963463328917000,9.3189169921875,-0.13383495807647705,-0.25090524554252625,0.024196941405534744
1790963463338997200,9.328997314453124,-0.14573504030704498,-0.23946937918663025,0.019461309537291527
1790963463349077200,9.3390771484375,-0.13600224256515503,-0.2605932950973511,-0.017366213724017143
1790963463359157000,9.349156982421874,-0.1373966783285141,-0.27050983905792236,-0.03756922110915184
1790963463369237200,9.3592373046875,-0.14380131661891937,-0.2852693498134613,-0.014831417240202427
1790963463379317000,9.36931689453125,-0.12311414629220963,-0.28861507773399353,-0.030483346432447433
1790963463389397200,9.379397216796875,-0.14675156772136688,-0.2851308584213257,0.005793966818600893
1790963463399477200,9.389477294921875,-0.13016273081302643,-0.2870904207229614,0.028609532862901688
1790963463409557000,9.399556884765625,-0.14151445031166077,-0.29265961050987244,-0.009439847432076931
1790963463419637200,9.40963720703125,-0.1763177067041397,-0.2901290953159332,-0.023271773010492325
1790963463429717000,9.419717041015625,-0.1603051871061325,-0.29308760166168213,-0.055765800178050995
1790963463439797200,9.42979736328125,-0.17045874893665314,-0.2877407670021057,-0.05459560826420784
1790963463449877000,9.439876953125,-0.16396863758563995,-0.29370543360710144,-0.012772793881595135
1790963463459957200,9.449957275390625,-0.148545503616333,-0.2981409728527069,0.02567487582564354
1790963463470037200,9.460037353515625,-0.15038014948368073,-0.29570260643959045,0.04455668851733208
1790963463480117000,9.470116943359375,-0.1280444860458374,-0.28258493542671204,0.015436885878443718
1790963463490197200,9.480197265625,-0.1260889321565628,-0.28634291887283325,-0.054135799407958984
1790963463500278300,9.4902783203125,-0.15076737105846405,-0.2571874260902405,-0.09692934155464172
1790963463510358000,9.50035791015625,-0.1486554890871048,-0.24451851844787598,-0.030744191259145737
1790963463520438300,9.510438232421874,-0.13100671768188477,-0.20733146369457245,0.05361489951610565
1790963463530518000,9.52051806640625,-0.13591252267360687,-0.174692302942276,0.029430998489260674
1790963463540598300,9.530598388671875,-0.1137707456946373,-0.14370934665203094,-0.0207687895745039
1790963463550678000,9.540677978515625,-0.08584936708211899,-0.11616453528404236,-0.07724964618682861
1790963463560758000,9.550758056640625,-0.09914413094520569,-0.09289516508579254,-0.07376063615083694
1790963463570838300,9.56083837890625,-0.08693966269493103,-0.06093376874923706,0.03162544220685959
1790963463580918000,9.57091796875,-0.08666776120662689,-0.020228685811161995,0.06288935244083405
1790963463590998300,9.580998291015625,-0.0943877324461937,0.03083529695868492,0.05924588814377785
1790963463601078000,9.591078125,-0.10608992725610733,0.08153948187828064,0.0003468827926553786
1790963463611158000,9.601157958984375,-0.14820408821105957,0.1377153992652893,-0.06926228851079941
1790963463621238300,9.61123828125,-0.13609814643859863,0.17481189966201782,-0.04068523645401001
1790963463631318000,9.621318115234375,-0.13062456250190735,0.2082609385251999,-0.011054642498493195
1790963463641398300,9.631398193359376,-0.11913515627384186,0.21838228404521942,0.04528586193919182
1790963463651478000,9.64147802734375,-0.09080604463815689,0.24945978820323944,0.009420272894203663
1790963463661558300,9.651558349609376,-0.10133591294288635,0.29139232635498047,-0.07334838062524796
1790963463671638000,9.661637939453126,-0.10706410557031631,0.304429292678833,-0.011053044348955154
1790963463681719000,9.671718994140624,-0.11295821517705917,0.3186740279197693,0.10222531110048294
1790963463691799000,9.681799072265624,-0.09412327408790588,0.3204415440559387,0.14002010226249695
1790963463701879000,9.691879150390625,-0.08413722366094589,0.29667630791664124,0.048517875373363495
1790963463711959000,9.701958984375,-0.054468005895614624,0.23084987699985504,-0.07208843529224396
1790963463722039300,9.712039306640625,-0.03632335737347603,0.15965266525745392,-0.1194133460521698
1790963463732119000,9.722119140625,-0.05123679339885712,0.07138565182685852,-0.07444080710411072
1790963463742199300,9.73219921875,-0.0696466937661171,-0.00869959406554699,0.0674167275428772
1790963463752279000,9.742279052734375,-0.08412203937768936,-0.13403993844985962,0.14726443588733673
1790963463762359000,9.752359130859375,-0.06571720540523529,-0.26388421654701233,0.0748879611492157
1790963463772439300,9.762439208984375,-0.10338814556598663,-0.367953360080719,-0.04754367470741272
1790963463782519000,9.77251904296875,-0.16970057785511017,-0.4545058310031891,-0.13107559084892273
1790963463792599300,9.782599365234375,-0.14135202765464783,-0.5023617744445801,-0.10107135027647018
1790963463802679000,9.792678955078125,-0.08294092863798141,-0.5574556589126587,0.027452802285552025
1790963463812759800,9.802759765625,-0.05822253227233887,-0.6154526472091675,0.040992848575115204
1790963463822840000,9.812840087890624,-0.030948566272854805,-0.6795336008071899,-0.07290709018707275
1790963463832919800,9.822919921875,-0.034619200974702835,-0.7389199733734131,-0.16437095403671265
1790963463842999800,9.832999755859374,-0.054655492305755615,-0.7582712769508362,-0.12913839519023895
1790963463853079800,9.843079833984374,-0.05834982916712761,-0.7300271391868591,0.04463392123579979
1790963463863159800,9.853159912109374,-0.032627154141664505,-0.6409622430801392,0.15863639116287231
1790963463873240800,9.86324072265625,-0.01034342311322689,-0.4909280240535736,0.15343737602233887
1790963463883320800,9.87332080078125,-0.012240925803780556,-0.40496009588241577,0.07736523449420929
1790963463893400800,9.88340087890625,0.05958719179034233,-0.29625120759010315,-0.06908119469881058
1790963463903480800,9.893480712890625,0.13171012699604034,-0.1926734298467636,-0.12238410115242004
1790963463913560800,9.903560791015625,0.1229616329073906,-0.07421468198299408,-0.08322285115718842
1790963463923641000,9.91364111328125,0.11860177665948868,0.04426588490605354,0.009618145413696766
1790963463933720800,9.923720947265625,0.10853502154350281,0.15722119808197021,0.0984145924448967
1790963463943800800,9.93380078125,0.13608543574810028,0.25664979219436646,0.08719123154878616
1790963463953880800,9.943880859375,0.1493338644504547,0.3449367880821228,-0.029010208323597908
1790963463963960800,9.9539609375,0.1194678321480751,0.46359020471572876,-0.12208076566457748
1790963463974041000,9.964041015625,0.1434789001941681,0.5525781512260437,-0.08173627406358719
1790963463984120800,9.974120849609376,0.1777452677488327,0.6524474620819092,0.05740084871649742
1790963463994200800,9.984200927734374,0.19377189874649048,0.717908501625061,0.18666669726371765
1790963464004280800,9.99428076171875,0.16843459010124207,0.7867869138717651,0.07687494158744812
1790963464014360800,10.00436083984375,0.202173113822937,0.8801597356796265,-0.043257586658000946
1790963464024440800,10.01444091796875,0.18777605891227722,0.9540379643440247,-0.0169314406812191
1790963464034520800,10.024520751953125,0.22918608784675598,1.001152753829956,0.030166829004883766
1790963464044601900,10.034601806640625,0.2535715699195862,1.0443142652511597,0.10552363097667694
1790963464054681900,10.044681884765625,0.24735097587108612,1.0478861331939697,0.12193216383457184
1790963464064761900,10.054761962890625,0.24868175387382507,1.0660052299499512,0.020926458761096
1790963464074841900,10.064841796875,0.20966218411922455,1.0473806858062744,-0.005900093819946051
1790963464084921900,10.074921875,0.21262601017951965,1.0052590370178223,0.11138604581356049
1790963464095001900,10.085001953125,0.22937996685504913,0.9586853981018066,0.10193236172199249
1790963464105081900,10.095081787109375,0.2344982922077179,0.9465459585189819,0.0860988050699234
1790963464115161900,10.105161865234376,0.20204713940620422,0.8933090567588806,0.11930682510137558
1790963464125241900,10.115241943359376,0.2505020201206207,0.8679038286209106,0.09208185970783234
1790963464135321900,10.12532177734375,0.24617278575897217,0.8314571380615234,0.05812256410717964
1790963464145401900,10.13540185546875,0.19062431156635284,0.7224603891372681,0.07593431323766708
1790963464155481900,10.14548193359375,0.17344532907009125,0.5991408228874207,0.07637320458889008
1790963464165561900,10.155561767578124,0.14639292657375336,0.4432992935180664,0.1109096109867096
1790963464175641900,10.165641845703124,0.11683343350887299,0.31198549270629883,0.10181571543216705
1790963464185721900,10.175721923828124,0.14408157765865326,0.2570503354072571,0.029383860528469086
1790963464195801900,10.1858017578125,0.13867296278476715,0.22363883256912231,-0.05567590519785881
1790963464205881900,10.1958818359375,0.13364863395690918,0.23771816492080688,0.004122446291148663
1790963464215961900,10.2059619140625,0.10428914427757263,0.23980741202831268,0.09063363075256348
1790963464226043000,10.21604296875,0.06930240243673325,0.19783146679401398,0.0846678838133812
1790963464236123000,10.226122802734375,0.05007091909646988,0.16399946808815002,0.006186662707477808
1790963464246203000,10.236202880859375,-0.027755703777074814,0.08204549551010132,0.002930148970335722
1790963464256283000,10.246282958984375,-0.06935321539640427,-0.006867606192827225,-0.008746480569243431
1790963464266363000,10.25636279296875,-0.05131349340081215,-0.030922874808311462,-0.021777328103780746
1790963464276443000,10.26644287109375,-0.06427856534719467,-0.024667641147971153,-0.03725402057170868
1790963464286523000,10.27652294921875,-0.04662925750017166,0.038142744451761246,0.014957251027226448
1790963464296603000,10.286602783203126,-0.04175594076514244,0.08829140663146973,-0.0583164282143116
1790963464306683000,10.296682861328126,-0.05143679678440094,0.14480474591255188,-0.13531853258609772
1790963464316763000,10.306762939453124,-0.0986676961183548,0.16950289905071259,-0.02866692654788494
1790963464326843000,10.3168427734375,-0.1210976392030716,0.15096090734004974,0.042438678443431854
1790963464336923000,10.3269228515625,-0.10793682932853699,0.13341040909290314,0.12377481162548065
1790963464347003000,10.3370029296875,-0.13446296751499176,0.0913337916135788,0.06359748542308807
1790963464357083000,10.347082763671875,-0.1328219324350357,0.066790372133255,-0.12181125581264496
1790963464367163000,10.357162841796875,-0.17976947128772736,-0.007484926842153072,-0.1547878384590149
1790963464377243000,10.367242919921875,-0.21334686875343323,-0.07115045189857483,-0.09400838613510132
1790963464387323000,10.377322998046875,-0.18192742764949799,-0.1372879296541214,0.03873635083436966
1790963464397404000,10.38740380859375,-0.14283008873462677,-0.17875921726226807,0.05301462113857269
1790963464407484000,10.39748388671875,-0.1502227634191513,-0.14350348711013794,-0.013506348244845867
1790963464417564000,10.40756396484375,-0.07376527786254883,-0.1679244041442871,0.04712158069014549
1790963464427643600,10.4176435546875,-0.10356711596250534,-0.18258856236934662,-0.06730460375547409
1790963464437724000,10.427723876953126,-0.14890901744365692,-0.14328058063983917,-0.13360026478767395
1790963464447804000,10.437803955078126,-0.15395624935626984,-0.17185203731060028,0.004359734244644642
1790963464457884000,10.4478837890625,-0.07580418884754181,-0.2730553448200226,0.25740984082221985
1790963464467964000,10.4579638671875,-0.020259875804185867,-0.30697622895240784,0.2148021161556244
1790963464478044000,10.4680439453125,-0.02520163729786873,-0.2245662957429886,-0.19983768463134766
1790963464488124000,10.4781240234375,-0.08426496386528015,-0.12087185680866241,-0.48364517092704773
1790963464498204000,10.488203857421874,-0.16245004534721375,-0.0303422249853611,-0.4250961244106293
1790963464508284000,10.498283935546874,-0.18910881876945496,0.016397051513195038,-0.09326623380184174
1790963464518364000,10.508364013671875,-0.14515520632266998,0.005110042169690132,0.33235934376716614
1790963464528444000,10.51844384765625,-0.08183269202709198,-0.04131311550736427,0.4746435284614563
1790963464538524000,10.52852392578125,-0.058701273053884506,-0.04701174795627594,0.38422948122024536
1790963464548603600,10.538603759765625,-0.0865001529455185,-0.12642322480678558,0.09627067297697067
1790963464558684000,10.548683837890625,-0.17243103682994843,-0.10267367959022522,-0.15835654735565186
1790963464568764000,10.558763916015625,-0.20166988670825958,-0.14723634719848633,-0.1845303624868393
1790963464578844700,10.5688447265625,-0.16002362966537476,-0.2027622014284134,-0.01626891829073429
1790963464588925000,10.578925048828125,-0.14193624258041382,-0.24116738140583038,0.0027556377463042736
1790963464599005000,10.5890048828125,-0.11122174561023712,-0.18027286231517792,-0.12222784012556076
1790963464609085000,10.5990849609375,-0.09283021837472916,-0.1383557766675949,-0.03347054123878479
1790963464619165000,10.6091650390625,-0.0855344906449318,-0.1499360054731369,0.07044227421283722
1790963464629245000,10.619244873046876,0.011877820827066898,-0.08881964534521103,0.3955332636833191
1790963464639325000,10.629324951171874,0.05705169215798378,-0.23871487379074097,0.4823451340198517
1790963464649404700,10.63940478515625,0.07479047030210495,-0.34628260135650635,0.057069212198257446
1790963464659485000,10.64948486328125,-0.09163685888051987,-0.32384973764419556,-0.26436102390289307
1790963464669565000,10.65956494140625,-0.3161189556121826,-0.4769338369369507,-0.2178715467453003
1790963464679645000,10.66964501953125,-0.3999518156051636,-0.5722566246986389,-0.06726046651601791
1790963464689725000,10.679724853515625,-0.2915872633457184,-0.5041007399559021,-0.054209109395742416
1790963464699804700,10.6898046875,-0.12098196148872375,-0.3702225685119629,-0.07060272991657257
1790963464709885000,10.699885009765625,-0.07156407833099365,-0.38211357593536377,0.07670736312866211
1790963464719965000,10.70996484375,-0.12754106521606445,-0.4015727639198303,0.09936793148517609
1790963464730045000,10.720044921875,-0.14390085637569427,-0.4397566318511963,-0.04199798405170441
1790963464740126000,10.7301259765625,-0.2572460472583771,-0.5218775868415833,-0.09144090116024017
1790963464750206000,10.7402060546875,-0.3075433075428009,-0.5987497568130493,-0.00958305411040783
1790963464760286000,10.750285888671876,-0.229302316904068,-0.6214390993118286,-0.07881565392017365
1790963464770366000,10.760365966796876,-0.1731295883655548,-0.6385208368301392,-0.10013745725154877
1790963464780445700,10.77044580078125,-0.14952199161052704,-0.664233922958374,0.017050422728061676
1790963464790526000,10.78052587890625,-0.15010735392570496,-0.6960736513137817,-0.011946609243750572
1790963464800605700,10.790605712890626,-0.1527247130870819,-0.7019760012626648,-0.026263229548931122
1790963464810685200,10.800685302734376,-0.19312752783298492,-0.7169272303581238,0.06195984035730362
1790963464820765000,10.810764892578124,-0.18858923017978668,-0.7414706945419312,0.0028845348861068487
1790963464830845200,10.82084521484375,-0.1895943135023117,-0.7382173538208008,-0.08734362572431564
1790963464840925200,10.83092529296875,-0.17476476728916168,-0.7429428696632385,-0.14060765504837036
1790963464851005200,10.841005126953124,-0.17363691329956055,-0.7792332172393799,-0.14306575059890747
1790963464861085200,10.851085205078125,-0.15963268280029297,-0.7676173448562622,0.03204534947872162
1790963464871165000,10.8611650390625,-0.1281578540802002,-0.7432142496109009,0.05926552042365074
1790963464881245200,10.8712451171875,-0.13523226976394653,-0.7085297703742981,-0.026058698073029518
1790963464891325200,10.8813251953125,-0.12411250919103622,-0.6631281971931458,-0.06401327252388
1790963464901405200,10.8914052734375,-0.134374737739563,-0.6266857981681824,-0.1022365540266037
1790963464911486200,10.901486328125,-0.14642474055290222,-0.6089903712272644,-0.09461832046508789
1790963464921566000,10.91156591796875,-0.0914301946759224,-0.5815665125846863,0.0003204433887731284
1790963464931646200,10.921646240234375,-0.06693550199270248,-0.5595823526382446,0.049835797399282455
1790963464941726200,10.931726318359376,-0.09453464299440384,-0.5499257445335388,0.06281124800443649
1790963464951806000,10.941805908203126,-0.07872398942708969,-0.522489607334137,0.0006954164709895849
1790963464961886200,10.95188623046875,-0.035159993916749954,-0.44634661078453064,-0.0429237000644207
1790963464971966000,10.961966064453126,-0.05543623864650726,-0.39243680238723755,0.027372300624847412
1790963464982046200,10.972046142578124,-0.02075708657503128,-0.309579998254776,-0.03640934079885483
1790963464992126200,10.982126220703124,0.005260930862277746,-0.2452974021434784,-0.042585477232933044
1790963465002206200,10.992206298828124,-0.010543864220380783,-0.18425428867340088,0.054038532078266144
1790963465012286200,11.0022861328125,0.026033854112029076,-0.13557836413383484,0.03548721969127655
1790963465022366000,11.012365966796875,0.06151621416211128,-0.08986840397119522,-0.008356934413313866
1790963465032446200,11.0224462890625,0.0676657184958458,-0.043320607393980026,0.019251789897680283
1790963465042526000,11.03252587890625,0.05338851362466812,-0.01216987892985344,-0.03010031208395958
1790963465052606200,11.042606201171875,0.07651619613170624,0.029316313564777374,0.028000274673104286
1790963465062686200,11.052686279296875,0.10432039946317673,0.08605069667100906,0.08180704712867737
1790963465072766000,11.062765869140625,0.1347089260816574,0.14222581684589386,0.024399148300290108
1790963465082847200,11.07284716796875,0.14029358327388763,0.17697447538375854,0.012264720164239407
1790963465092927200,11.08292724609375,0.16063827276229858,0.20847435295581818,0.003974033985286951
1790963465103007000,11.093007080078126,0.17177800834178925,0.24866518378257751,0.03537669777870178
1790963465113087200,11.103087158203126,0.14718131721019745,0.2843555212020874,-0.007300990633666515
1790963465123167000,11.1131669921875,0.1654902845621109,0.29197511076927185,0.054044391959905624
1790963465133247200,11.123247314453126,0.234318345785141,0.30377236008644104,0.08239587396383286
1790963465143327200,11.1333271484375,0.22450965642929077,0.31240978837013245,0.00024161381588783115
1790963465153407000,11.143406982421874,0.1341312974691391,0.3216317892074585,0.034258436411619186
1790963465163487200,11.1534873046875,0.1415814906358719,0.3470652401447296,0.09316489845514297
1790963465173567000,11.16356689453125,0.15638147294521332,0.36502426862716675,0.06283282488584518
1790963465183647200,11.173647216796875,0.1267460733652115,0.3833249807357788,0.05089467018842697
1790963465193727000,11.18372705078125,0.11686521768569946,0.3836778700351715,0.0008552061626687646
1790963465203807200,11.19380712890625,0.14002566039562225,0.39131179451942444,-0.033924080431461334
1790963465213887200,11.20388720703125,0.12900923192501068,0.3655443787574768,0.05106005445122719
1790963465223967000,11.213967041015625,0.1184878870844841,0.37248218059539795,0.04245112091302872
1790963465234047200,11.224047119140625,0.10883845388889313,0.3773302137851715,0.043387219309806824
1790963465244128300,11.234128173828125,0.0687810480594635,0.33704352378845215,0.03234362602233887
1790963465254208000,11.2442080078125,0.11017722636461258,0.31748685240745544,-0.022023210301995277
1790963465264288300,11.254288330078126,0.11354345828294754,0.2891484200954437,0.0466139055788517
1790963465274368000,11.264367919921876,0.06541135162115097,0.26707029342651367,0.017052818089723587
1790963465284448300,11.2744482421875,0.11453894525766373,0.29323825240135193,-0.06295173615217209
1790963465294528000,11.284528076171876,0.08562074601650238,0.2941746115684509,0.0040941424667835236
1790963465304608000,11.29460791015625,0.04601981118321419,0.2871111035346985,0.059876449406147
1790963465314688300,11.304688232421874,0.09347361326217651,0.29238176345825195,0.058559514582157135
1790963465324768000,11.31476806640625,0.054015420377254486,0.2805362939834595,-0.0057134805247187614
1790963465334848300,11.32484814453125,0.030914096161723137,0.2869585156440735,-0.042356446385383606
1790963465344928000,11.334927978515625,0.04814581573009491,0.27928033471107483,-0.01824392005801201
1790963465355008000,11.345008056640625,0.050571952015161514,0.2495349645614624,0.07998384535312653
1790963465365088300,11.355088134765625,0.05330302566289902,0.2603417932987213,0.11250423640012741
1790963465375168000,11.36516796875,0.047760188579559326,0.26927778124809265,-0.000360526901204139
1790963465385248300,11.375248291015625,0.06194445118308067,0.26736029982566833,-0.030117889866232872
1790963465395328000,11.385327880859375,0.007370420731604099,0.27941375970840454,-0.031755998730659485
1790963465405409000,11.395408935546875,0.026947850361466408,0.2604038715362549,-0.040966808795928955
1790963465415489300,11.4054892578125,0.04255956783890724,0.23275040090084076,0.04373582825064659
1790963465425569000,11.415569091796876,-0.0023876677732914686,0.20142656564712524,0.04320559278130531
1790963465435649300,11.425649169921876,0.025014661252498627,0.1838212013244629,-0.013172462582588196
1790963465445729000,11.43572900390625,0.00122624181676656,0.16945025324821472,0.06689547747373581
1790963465455809000,11.44580908203125,-0.011825377121567726,0.15399007499217987,0.04186602309346199
1790963465465889300,11.45588916015625,0.005244951695203781,0.14527088403701782,-0.046022552996873856
1790963465475969000,11.465968994140624,-0.03854377567768097,0.11588558554649353,-0.050129085779190063
1790963465486049300,11.47604931640625,-0.019881941378116608,0.09699098765850067,-0.005927801597863436
1790963465496129000,11.48612890625,-0.024142466485500336,0.07588490843772888,0.0613979734480381
1790963465506209000,11.496208984375,-0.04234437271952629,0.052379313856363297,0.12432980537414551
1790963465516289300,11.506289306640625,-0.008327017538249493,0.020547082647681236,-0.031068572774529457
1790963465526369000,11.516369140625,-0.03868492320179939,-0.02180303819477558,-0.13184019923210144
1790963465536449300,11.52644921875,-0.0779431164264679,-0.0708044022321701,0.010402169078588486
1790963465546529000,11.536529052734375,-0.08464309573173523,-0.12852735817432404,0.06718635559082031
1790963465556609300,11.546609375,-0.07191185653209686,-0.15384097397327423,-0.0029623720329254866
1790963465566690300,11.556690185546875,-0.09518175572156906,-0.18490701913833618,-0.09601561725139618
1790963465576770000,11.56677001953125,-0.08649798482656479,-0.22619399428367615,-0.07496492564678192
1790963465586850000,11.57685009765625,-0.1282086819410324,-0.2682729959487915,0.01806621439754963
1790963465596930000,11.586929931640626,-0.10895189642906189,-0.29362282156944275,0.033854495733976364
1790963465607010000,11.597010009765626,-0.07949760556221008,-0.3019409477710724,0.02865441143512726
1790963465617090300,11.60709033203125,-0.1404416412115097,-0.3305954933166504,-0.038761917501688004
1790963465627170000,11.617170166015624,-0.1201491579413414,-0.349676251411438,-0.10530951619148254
1790963465637250300,11.627250244140624,-0.1396046131849289,-0.3695644736289978,-0.09349759668111801
1790963465647330000,11.637330078125,-0.16455844044685364,-0.3768673837184906,-0.07778441160917282
1790963465657410000,11.64741015625,-0.1209142804145813,-0.4011082649230957,0.025076188147068024
1790963465667490000,11.657489990234374,-0.13145267963409424,-0.43173569440841675,0.016608400270342827
1790963465677570000,11.667570068359375,-0.12665978074073792,-0.4329013526439667,-0.0862593874335289
1790963465687650300,11.677650390625,-0.1014614924788475,-0.44540515542030334,-0.09898743778467178
1790963465697730000,11.68772998046875,-0.10864297300577164,-0.48268622159957886,0.0067978473380208015
1790963465707810000,11.69781005859375,-0.11389259248971939,-0.5103863477706909,0.034819893538951874
1790963465717890000,11.70789013671875,-0.09422914683818817,-0.49920928478240967,-0.025462886318564415
1790963465727970000,11.717969970703125,-0.11665216088294983,-0.5029454231262207,-0.023548873141407967
1790963465738051000,11.728051025390625,-0.11952118575572968,-0.5225593447685242,-0.04823398217558861
1790963465748131000,11.738131103515625,-0.10489297658205032,-0.5268992781639099,-0.040633853524923325
1790963465758211000,11.748211181640626,-0.10663335025310516,-0.5501121878623962,-0.05918117240071297
1790963465768291300,11.758291259765626,-0.07986538112163544,-0.5546895861625671,-0.029086915776133537
1790963465778371000,11.76837109375,-0.11025364696979523,-0.5627374053001404,-0.013334851711988449
1790963465788451000,11.778451171875,-0.09133375436067581,-0.5578816533088684,-0.011066371574997902
1790963465798531000,11.788531005859374,-0.07384157925844193,-0.558804988861084,-0.03265688568353653
1790963465808611000,11.798611083984374,-0.07085191458463669,-0.5460460782051086,-0.0516074076294899
1790963465818692000,11.808692138671875,-0.12106608599424362,-0.5201199054718018,-0.004028435330837965
1790963465828772000,11.818772216796875,-0.12323389947414398,-0.49758368730545044,0.02703014947474003
1790963465838851800,11.828851806640625,-0.09314657002687454,-0.45542317628860474,0.01777459867298603
1790963465848932000,11.83893212890625,-0.09204162657260895,-0.42689114809036255,-0.03532590717077255
1790963465859011800,11.84901171875,-0.09205573797225952,-0.39654016494750977,-0.08774623274803162
1790963465869092000,11.859092041015625,-0.06730751693248749,-0.37775447964668274,-0.09354473650455475
1790963465879172000,11.869172119140625,-0.05322685092687607,-0.35685959458351135,-0.0019005697686225176
1790963465889251800,11.879251953125,-0.03505982831120491,-0.29669639468193054,0.08800216019153595
1790963465899333000,11.8893330078125,-0.009352334775030613,-0.24690566956996918,0.049818817526102066
1790963465909413000,11.8994130859375,-0.0021114659029990435,-0.18706098198890686,-0.046418771147727966
1790963465919492900,11.909492919921876,-0.007639922201633453,-0.1392172873020172,-0.09380865097045898
1790963465929573000,11.919572998046876,0.027926594018936157,-0.10625826567411423,-0.0452890582382679
1790963465939652900,11.92965283203125,0.05326603725552559,-0.06577982008457184,0.06289254128932953
1790963465949733000,11.939733154296874,0.07214199006557465,-0.03537850081920624,0.06528273224830627
1790963465959813000,11.949813232421874,0.10273585468530655,0.010522143915295601,-0.03823940455913544
1790963465969892900,11.959892822265624,0.08695448935031891,0.03854126110672951,0.004447075072675943
1790963465979973000,11.96997314453125,0.1022825837135315,0.069964699447155,0.04779960587620735
1790963465990052900,11.980052978515625,0.12237639725208282,0.08670559525489807,0.12699241936206818
1790963466000133000,11.990133056640625,0.1055809035897255,0.09605781733989716,0.12873786687850952
1790963466010212900,12.000212890625,0.1130092591047287,0.13238918781280518,-0.06107601150870323
1790963466020293000,12.010293212890625,0.11195997893810272,0.1740732491016388,-0.16235309839248657
1790963466030373000,12.020373046875,0.11120922863483429,0.19601263105869293,-0.0677485540509224
1790963466040452900,12.030452880859375,0.15532556176185608,0.2274661660194397,0.02096639759838581
1790963466050534000,12.040533935546875,0.14073383808135986,0.2501773536205292,0.09064614772796631
1790963466060614100,12.0506142578125,0.14617493748664856,0.26537469029426575,0.10509113222360611
1790963466070694000,12.06069384765625,0.13651138544082642,0.268163800239563,0.05549827218055725
1790963466080774100,12.070774169921876,0.10477210581302643,0.27894827723503113,0.010262353345751762
1790963466090854000,12.08085400390625,0.15512210130691528,0.2797107398509979,-0.008311597630381584
1790963466100934100,12.09093408203125,0.14123690128326416,0.27933523058891296,0.0718010812997818
1790963466111014000,12.101013916015624,0.13273955881595612,0.26402926445007324,0.024073507636785507
1790963466121094000,12.111093994140624,0.14510221779346466,0.26157355308532715,-0.0488574281334877
1790963466131174100,12.121174072265624,0.15707339346408844,0.2535286843776703,0.03523534536361694
1790963466141254000,12.13125390625,0.11223774403333664,0.24206775426864624,0.08291924744844437
1790963466151334100,12.141334228515625,0.11825515329837799,0.2457146793603897,0.028110859915614128
1790963466161414000,12.151413818359375,0.13236938416957855,0.22106951475143433,0.024342752993106842
1790963466171494000,12.161493896484375,0.11058977991342545,0.2036314159631729,0.008814925327897072
1790963466181574100,12.17157421875,0.09368989616632462,0.17926108837127686,0.034884341061115265
1790963466191654000,12.18165380859375,0.1419631540775299,0.17701071500778198,0.0331285186111927
1790963466201734100,12.191734130859375,0.09089836478233337,0.17926934361457825,-0.01657778210937977
1790963466211815200,12.201815185546875,0.10705550014972687,0.1933678537607193,-0.005881995428353548
1790963466221895000,12.21189501953125,0.09561802446842194,0.19922760128974915,0.04398995637893677
1790963466231975200,12.22197509765625,0.06538528203964233,0.19888219237327576,0.0013093383749946952
1790963466242055000,12.232054931640626,0.0802081748843193,0.20408174395561218,0.01172655913978815
1790963466252135000,12.242135009765626,0.07812771201133728,0.18716880679130554,0.025301223620772362
1790963466262215000,12.25221484375,0.056249309331178665,0.17786425352096558,0.006262818351387978
1790963466272295000,12.262294921875,0.07921401411294937,0.186292365193367,-0.03652779012918472
1790963466282375200,12.272375244140624,0.09467046707868576,0.18142090737819672,-0.004323779605329037
1790963466292455000,12.282454833984374,0.052949387580156326,0.16691307723522186,0.00959017127752304
1790963466302535200,12.29253515625,0.08200553804636002,0.17140929400920868,0.1008061021566391
1790963466312615000,12.302614990234375,0.08996173739433289,0.1794794648885727,0.06685852259397507
1790963466322695000,12.31269482421875,0.07036060094833374,0.1715288609266281,0.02667115442454815
1790963466332775200,12.322775146484375,0.09139451384544373,0.18154315650463104,-0.0005242479965090752
1790963466342855000,12.33285498046875,0.07570023834705353,0.17472653090953827,-0.027331626042723656
1790963466352935200,12.34293505859375,0.08995827287435532,0.16970354318618774,0.057684995234012604
1790963466363015000,12.353014892578125,0.06000383570790291,0.16728352010250092,0.05475951358675957
1790963466373096000,12.363095947265625,0.0925990641117096,0.17361092567443848,-0.0019327939953655005
1790963466383176200,12.37317626953125,0.06831342726945877,0.1651785522699356,0.008584029041230679
1790963466393257000,12.383257080078126,0.06078707054257393,0.17867812514305115,0.04994291812181473
