time,seconds_elapsed,z,y,x
1790963454080512800,0.0705126953125,-0.03243517130613327,-0.14617079496383667,0.035223234444856644
1790963454090592800,0.0805927734375,-0.07175115495920181,-0.06064816564321518,0.08287837356328964
1790963454100673000,0.090673095703125,-0.10961597412824631,0.08799004554748535,0.11456999182701111
1790963454110752800,0.100752685546875,-0.14495612680912018,0.24075056612491608,0.12572143971920013
1790963454120833000,0.1108330078125,-0.17792658507823944,0.30147862434387207,0.13255751132965088
1790963454130912800,0.120912841796875,-0.2005741149187088,0.33534976840019226,0.1291065812110901
1790963454140992800,0.13099267578125,-0.1889137327671051,0.31033310294151306,0.1264684647321701
1790963454151073000,0.141072998046875,-0.15292988717556,0.24682176113128662,0.14594894647598267
1790963454161152800,0.15115283203125,-0.10658875852823257,0.14806003868579865,0.1766836941242218
1790963454171233000,0.16123291015625,-0.08459264785051346,0.09164443612098694,0.21537703275680542
1790963454181312800,0.171312744140625,-0.07372242212295532,0.05270395800471306,0.26244813203811646
1790963454191393000,0.18139306640625,-0.055088285356760025,0.036311935633420944,0.29172825813293457
1790963454201472800,0.19147265625,-0.0388730950653553,0.05489147827029228,0.31687116622924805
1790963454211552800,0.201552734375,-0.03574547916650772,0.09284897893667221,0.336338609457016
1790963454221633000,0.211633056640625,-0.04260871186852455,0.13982181251049042,0.36468103528022766
1790963454231712800,0.221712646484375,-0.031913723796606064,0.18447236716747284,0.4006246328353882
1790963454241793000,0.23179296875,0.004832305945456028,0.2155754268169403,0.3995298147201538
1790963454251872800,0.241872802734375,0.05866304785013199,0.22716417908668518,0.34841683506965637
1790963454261952800,0.251952880859375,0.12443433701992035,0.1475793421268463,0.2644151449203491
1790963454272031700,0.26203173828125,0.19839058816432953,0.009180182591080666,0.19134758412837982
1790963454282112000,0.272112060546875,0.25025057792663574,-0.11715032160282135,0.17714868485927582
1790963454292192000,0.28219189453125,0.27760976552963257,-0.19480331242084503,0.2254118174314499
1790963454302271700,0.292271728515625,0.28164181113243103,-0.2426038533449173,0.3297925591468811
1790963454312352000,0.30235205078125,0.30716845393180847,-0.278507262468338,0.4507213830947876
1790963454322431700,0.312431640625,0.3610175848007202,-0.30644914507865906,0.5350103974342346
1790963454332512000,0.322511962890625,0.4009668529033661,-0.28025907278060913,0.5168803930282593
1790963454342591700,0.332591796875,0.3921049237251282,-0.2073180377483368,0.4194859564304352
1790963454352671700,0.342671630859375,0.35234418511390686,-0.13175936043262482,0.33117660880088806
1790963454362752000,0.352751953125,0.29520314931869507,-0.04128006100654602,0.322029709815979
1790963454372831700,0.362831787109375,0.22377237677574158,0.07883835583925247,0.3834373950958252
1790963454382912000,0.372912109375,0.1984206736087799,0.22224345803260803,0.5089796185493469
1790963454392991700,0.38299169921875,0.1834217607975006,0.2864437401294708,0.6688273549079895
1790963454403072000,0.393072021484375,0.20202021300792694,0.2336215376853943,0.8204783797264099
1790963454413152000,0.403152099609375,0.18963384628295898,0.105865977704525,0.9357029795646667
1790963454423231700,0.413231689453125,0.13612668216228485,-0.33944517374038696,1.1240015029907227
1790963454433312000,0.42331201171875,-0.08653249591588974,-0.3593935966491699,1.364841341972351
1790963454443391700,0.433391845703125,-0.28790634870529175,-0.15100282430648804,1.518846869468689
1790963454453472000,0.443471923828125,-0.4576442539691925,0.028724322095513344,1.6202820539474487
1790963454463551700,0.4535517578125,-0.6134330630302429,0.17792712152004242,1.7032036781311035
1790963454473631700,0.4636318359375,-0.7948630452156067,0.29410088062286377,1.8089444637298584
1790963454483712000,0.4737119140625,-0.9372910261154175,0.43574267625808716,1.9276479482650757
1790963454493791000,0.483791015625,-0.8617640137672424,0.7327088713645935,2.0054244995117188
1790963454503871000,0.49387109375,-0.548419713973999,0.9741470217704773,2.0240063667297363
1790963454513950700,0.50395068359375,-0.17969731986522675,1.0818202495574951,1.9825143814086914
1790963454524031000,0.514031005859375,0.008535165339708328,1.096558928489685,1.8373044729232788
1790963454534110700,0.52411083984375,0.05350130796432495,1.0314217805862427,1.6387101411819458
1790963454544191000,0.53419091796875,0.007789213676005602,0.8290969133377075,1.4852230548858643
1790963454554271000,0.54427099609375,-0.06750340759754181,0.5051430463790894,1.499146580696106
1790963454564350700,0.554350830078125,-0.14306287467479706,0.3057684302330017,1.621689796447754
1790963454574431000,0.564430908203125,-0.22338168323040009,0.21639755368232727,1.790310263633728
1790963454584510700,0.5745107421875,-0.30626484751701355,0.22196274995803833,1.9733359813690186
1790963454594591000,0.584591064453125,-0.3414470851421356,0.39753857254981995,2.159298896789551
1790963454604670700,0.594670654296875,-0.3490796983242035,0.6590673923492432,2.340236186981201
1790963454614751000,0.6047509765625,-0.3612194359302521,0.9754671454429626,2.5133960247039795
1790963454624831000,0.6148310546875,-0.36006683111190796,1.196220874786377,2.662212371826172
1790963454634910700,0.62491064453125,-0.3336256444454193,1.287894606590271,2.772991180419922
1790963454644991000,0.634990966796875,-0.2742030620574951,1.2812601327896118,2.8467321395874023
1790963454655070700,0.64507080078125,-0.22570769488811493,1.2024002075195312,2.8524351119995117
1790963454665151000,0.65515087890625,-0.21706520020961761,1.05597984790802,2.7851545810699463
1790963454675231000,0.66523095703125,-0.25101545453071594,0.9192105531692505,2.6434974670410156
1790963454685310700,0.675310791015625,-0.3421115279197693,0.8995527029037476,2.2529492378234863
1790963454695391000,0.685390869140625,-0.3011060357093811,0.6604437232017517,1.892671823501587
1790963454705470700,0.695470703125,-0.1096857488155365,0.4587705135345459,1.5756940841674805
1790963454715551000,0.705551025390625,0.1549845188856125,0.2835739254951477,1.2591995000839233
1790963454725630700,0.715630615234375,0.4106906056404114,0.164528489112854,0.9410330057144165
1790963454735711000,0.7257109375,0.5911266803741455,0.06091341748833656,0.6708249449729919
1790963454745789700,0.735789794921875,0.6871970295906067,-0.018906844779849052,0.4700034558773041
1790963454755870000,0.745869873046875,0.7395888566970825,-0.0701356753706932,0.32471176981925964
1790963454765950000,0.755949951171875,0.79475998878479,-0.06766453385353088,0.2678527534008026
1790963454776030000,0.766030029296875,0.8868619203567505,-0.05197238549590111,0.2915588915348053
1790963454786110000,0.77610986328125,0.9862574934959412,-0.04950816556811333,0.3774982988834381
1790963454796189700,0.786189697265625,1.0158566236495972,-0.06390468031167984,0.5199552774429321
1790963454806269200,0.796269287109375,0.9372518658638,-0.06308629363775253,0.660062313079834
1790963454816349000,0.806348876953125,0.7900733351707458,0.0289435014128685,0.7259089946746826
1790963454826429200,0.81642919921875,0.6098537445068359,0.15283802151679993,0.6878292560577393
1790963454836509200,0.82650927734375,0.42273661494255066,0.22647042572498322,0.5043563842773438
1790963454846589200,0.836589111328125,0.23229289054870605,0.4042729139328003,0.021132448688149452
1790963454856669200,0.846669189453125,0.06349775195121765,0.11429914832115173,-0.5154681205749512
1790963454866749000,0.8567490234375,0.043659329414367676,-0.28580138087272644,-0.9690313935279846
1790963454876829200,0.8668291015625,0.09150142222642899,-0.7044417858123779,-1.3483861684799194
1790963454886909000,0.876908935546875,0.09065134078264236,-1.1006618738174438,-1.5958553552627563
1790963454896989200,0.8869892578125,0.03214941546320915,-1.3033078908920288,-1.7564412355422974
1790963454907069200,0.897069091796875,-0.06460748612880707,-1.2500596046447754,-1.8521326780319214
1790963454917149200,0.907149169921875,-0.17597688734531403,-1.0200074911117554,-1.8623099327087402
1790963454927229200,0.917229248046875,-0.2609437108039856,-0.7716472148895264,-1.819209337234497
1790963454937309000,0.927308837890625,-0.2973046600818634,-0.5475360751152039,-1.7415398359298706
1790963454947389200,0.93738916015625,-0.27022483944892883,-0.3420622646808624,-1.5943729877471924
1790963454957469200,0.94746923828125,-0.167666494846344,-0.15325000882148743,-1.362850308418274
1790963454967549200,0.957549072265625,-0.038421958684921265,0.00917512271553278,-1.0624380111694336
1790963454977629200,0.967629150390625,0.08679481595754623,0.13670378923416138,-0.7148142457008362
1790963454987709000,0.977708984375,0.18247286975383759,0.22660917043685913,-0.3763379454612732
1790963454997789200,0.9877890625,0.24088291823863983,0.23884879052639008,-0.10496609658002853
1790963455007869200,0.997869140625,0.27671122550964355,0.1963450163602829,0.06235445290803909
1790963455017949200,1.00794921875,0.30124717950820923,0.10911476612091064,0.11812637001276016
1790963455028029200,1.018029296875,0.3016914129257202,-0.029230056330561638,0.09767382591962814
1790963455038108200,1.028108154296875,0.25061675906181335,-0.12979155778884888,0.021508753299713135
1790963455048188200,1.038188232421875,0.16437482833862305,-0.060859888792037964,-0.06281065195798874
1790963455058268200,1.04826806640625,0.06815189123153687,0.1349133402109146,-0.13578365743160248
1790963455068348200,1.05834814453125,0.00418435875326395,0.35144883394241333,-0.1976374387741089
1790963455078428000,1.068427978515625,-0.004095142707228661,0.4831770360469818,-0.23283112049102783
1790963455088508200,1.078508056640625,-0.032038625329732895,0.36514973640441895,-0.18825140595436096
1790963455098588200,1.088588134765625,-0.1193583533167839,0.14187298715114594,-0.042569030076265335
1790963455108668200,1.098668212890625,-0.20498031377792358,-0.0686938464641571,0.1757606416940689
1790963455118748200,1.108748046875,-0.2599349021911621,-0.15363669395446777,0.39136722683906555
1790963455128828200,1.118828125,-0.2702796757221222,-0.14437608420848846,0.5664948225021362
1790963455138908200,1.128908203125,-0.2651810646057129,-0.14259177446365356,0.6583999991416931
1790963455148988000,1.13898779296875,-0.2508743107318878,-0.22846166789531708,0.6398441791534424
1790963455159068200,1.149068115234375,-0.24059157073497772,-0.3981447219848633,0.5483696460723877
1790963455169148200,1.159148193359375,-0.21116577088832855,-0.5480228662490845,0.44694554805755615
1790963455179228200,1.169228271484375,-0.14698731899261475,-0.5936678647994995,0.38297906517982483
1790963455189308200,1.17930810546875,0.005648830905556679,-0.5613709092140198,0.37480664253234863
1790963455199388000,1.189387939453125,0.27304404973983765,-0.5172854661941528,0.427837610244751
1790963455209468200,1.19946826171875,0.5487443208694458,-0.4437742531299591,0.49829980731010437
1790963455219548200,1.209548095703125,0.8047865033149719,-0.28472042083740234,0.5933485627174377
1790963455229628200,1.219628173828125,1.0306771993637085,0.03736494854092598,0.7046926617622375
1790963455239708200,1.229708251953125,1.2141116857528687,0.4019261300563812,0.8606092929840088
1790963455249788200,1.2397880859375,1.3938013315200806,0.7997102737426758,1.0519592761993408
1790963455259868200,1.2498681640625,1.5756802558898926,1.0617269277572632,1.24761962890625
1790963455269948000,1.259947998046875,1.6740331649780273,1.1928716897964478,1.4024230241775513
1790963455280028200,1.270028076171875,1.6290862560272217,1.265342354774475,1.4851131439208984
1790963455290108200,1.280108154296875,1.3711583614349365,1.2221291065216064,1.4224004745483398
1790963455300188200,1.290188232421875,1.0488598346710205,1.099989652633667,1.1821750402450562
1790963455310268200,1.30026806640625,0.8194703459739685,0.9281015396118164,0.8956908583641052
1790963455320348000,1.310347900390625,0.6969226002693176,0.6333212852478027,0.5647635459899902
1790963455330428200,1.32042822265625,0.5141251087188721,0.330025851726532,0.17640486359596252
1790963455340508200,1.330508056640625,0.31263992190361023,0.21274955570697784,-0.23398080468177795
1790963455350587100,1.340587158203125,0.10599008202552795,0.23489905893802643,-0.639802098274231
1790963455360667100,1.350667236328125,-0.06334514915943146,0.1595904529094696,-0.9594711661338806
1790963455370747100,1.3607470703125,-0.17739422619342804,-0.019508186727762222,-1.0704991817474365
1790963455380827100,1.3708271484375,-0.21030797064304352,-0.26110535860061646,-0.9372819662094116
1790963455390907100,1.3809072265625,-0.21141476929187775,-0.4345780909061432,-0.6318751573562622
1790963455400987100,1.390987060546875,-0.265916645526886,-0.47029614448547363,-0.3232606053352356
1790963455411067100,1.401067138671875,-0.30119338631629944,-0.36337366700172424,-0.09267187863588333
1790963455421147100,1.411147216796875,-0.29096153378486633,-0.10248696058988571,0.029470540583133698
1790963455431227100,1.42122705078125,-0.2738960087299347,0.2461778223514557,0.023063506931066513
1790963455441307100,1.43130712890625,-0.23027554154396057,0.5418674945831299,-0.06264527142047882
1790963455451387100,1.44138720703125,-0.13694533705711365,0.7104477286338806,-0.18533682823181152
1790963455461467100,1.451467041015625,-0.05814160034060478,0.748146653175354,-0.27784278988838196
1790963455471547100,1.461547119140625,-0.04072212800383568,0.6605390310287476,-0.3232118785381317
1790963455481627100,1.471627197265625,-0.07014793157577515,0.5100637674331665,-0.3503766655921936
1790963455491707100,1.48170703125,-0.0978677049279213,0.3859724700450897,-0.36674070358276367
1790963455501787100,1.491787109375,-0.11536414176225662,0.321439266204834,-0.37557467818260193
1790963455511867100,1.5018671875,-0.11925848573446274,0.2979973256587982,-0.385988712310791
1790963455521947100,1.511947021484375,-0.1487833559513092,0.3785073459148407,-0.39546024799346924
1790963455532027000,1.52202685546875,-0.24197694659233093,0.4676811695098877,-0.3602775037288666
1790963455542107100,1.532107177734375,-0.34551477432250977,0.5444356203079224,-0.2941807508468628
1790963455552187100,1.542187255859375,-0.4298320710659027,0.623131513595581,-0.2435295730829239
1790963455562267100,1.55226708984375,-0.4891100227832794,0.7162899374961853,-0.24752430617809296
1790963455572347100,1.56234716796875,-0.5029702186584473,0.810452938079834,-0.2867017984390259
1790963455582427100,1.57242724609375,-0.5084645748138428,0.7990100979804993,-0.285013347864151
1790963455592507100,1.582507080078125,-0.5020378232002258,0.7261286973953247,-0.12209475040435791
1790963455602587100,1.592587158203125,-0.46450483798980713,0.6200504899024963,0.11173026263713837
1790963455612667100,1.602667236328125,-0.4726884663105011,0.5744947195053101,0.2820655107498169
1790963455622747100,1.6127470703125,-0.49181580543518066,0.5454183220863342,0.38461506366729736
1790963455632827100,1.6228271484375,-0.48853132128715515,0.5837728977203369,0.43014684319496155
1790963455642907100,1.6329072265625,-0.4777598977088928,0.6488261818885803,0.42446181178092957
1790963455652987100,1.642987060546875,-0.4042137861251831,0.6681325435638428,0.3407711684703827
1790963455663067100,1.653067138671875,-0.2611490488052368,0.5748350620269775,0.21089306473731995
1790963455673147100,1.663147216796875,-0.10230106860399246,0.4132182002067566,0.09940088540315628
1790963455683227100,1.67322705078125,0.013740046881139278,0.24867026507854462,0.04914890229701996
1790963455693306000,1.68330615234375,0.1091160997748375,0.1694984883069992,0.07760238647460938
1790963455703386000,1.69338623046875,0.20877452194690704,0.17017945647239685,0.16082003712654114
1790963455713466000,1.703466064453125,0.3025910258293152,0.20010966062545776,0.24269919097423553
1790963455723546000,1.713546142578125,0.34390971064567566,0.24322409927845,0.2963043749332428
1790963455733626000,1.723626220703125,0.3512856066226959,0.26542794704437256,0.3256444036960602
1790963455743706000,1.7337060546875,0.39467060565948486,0.288150817155838,0.3661252558231354
1790963455753786000,1.7437861328125,0.48036128282546997,0.3252020478248596,0.41179075837135315
1790963455763866000,1.7538662109375,0.5765416026115417,0.3969667851924896,0.4839283227920532
1790963455773946000,1.763946044921875,0.6650600433349609,0.48981791734695435,0.6014760136604309
1790963455784026000,1.774026123046875,0.7731473445892334,0.6064193248748779,0.7280078530311584
1790963455794106000,1.784106201171875,0.9415584802627563,0.69681316614151,0.7738725543022156
1790963455804186400,1.794186279296875,1.1237844228744507,0.7715175151824951,0.7436088919639587
1790963455814266400,1.804266357421875,1.3360698223114014,0.7656944990158081,0.6561192870140076
1790963455824346400,1.814346435546875,1.5200780630111694,0.7292243838310242,0.52967768907547
1790963455834426400,1.82442626953125,1.628548502922058,0.7757202386856079,0.36298006772994995
1790963455844506600,1.834506591796875,1.6012879610061646,0.8912146091461182,0.14003007113933563
1790963455854586400,1.84458642578125,1.410571813583374,0.8750108480453491,-0.03190626576542854
1790963455864666400,1.854666259765625,1.0954627990722656,0.6343649625778198,-0.12777739763259888
1790963455874746400,1.864746337890625,0.7077789902687073,0.25799664855003357,-0.19450582563877106
1790963455884826400,1.874826416015625,0.30567389726638794,-0.22400540113449097,-0.2916496992111206
1790963455894906600,1.88490673828125,0.013353356160223484,-0.665442168712616,-0.3782538175582886
1790963455904986400,1.894986328125,-0.16547684371471405,-0.9936861395835876,-0.4299132823944092
1790963455915066400,1.90506640625,-0.30662065744400024,-1.153255820274353,-0.48024651408195496
1790963455925146400,1.915146484375,-0.38700738549232483,-1.154523253440857,-0.5388379096984863
1790963455935226400,1.925226318359375,-0.39700594544410706,-1.0767226219177246,-0.570836067199707
1790963455945306400,1.935306396484375,-0.3641590476036072,-1.030194878578186,-0.5862480401992798
1790963455955386400,1.945386474609375,-0.27099448442459106,-0.9577741622924805,-0.5583192110061646
1790963455965466600,1.955466552734375,-0.19096462428569794,-0.8437911868095398,-0.4850013256072998
1790963455975546400,1.96554638671875,-0.17009902000427246,-0.626354992389679,-0.4237089157104492
1790963455985626400,1.97562646484375,-0.19886435568332672,-0.41353458166122437,-0.40360045433044434
1790963455995706400,1.985706298828125,-0.26661011576652527,-0.28450897336006165,-0.4067150354385376
1790963456005786400,1.995786376953125,-0.33318090438842773,-0.21063339710235596,-0.39304155111312866
1790963456015866600,2.00586669921875,-0.3594479262828827,-0.16000618040561676,-0.3345300555229187
1790963456025946400,2.0159462890625,-0.34148117899894714,-0.08352578431367874,-0.24337297677993774
1790963456036026400,2.0260263671875,-0.30362966656684875,-0.020204070955514908,-0.14689810574054718
1790963456046106400,2.0361064453125,-0.2833595275878906,0.0672147199511528,-0.09848236292600632
1790963456056186400,2.046186279296875,-0.2951038181781769,0.06876068562269211,-0.08994613587856293
1790963456066266400,2.056266357421875,-0.3104734420776367,0.006088252644985914,-0.06786719709634781
1790963456076346400,2.066346435546875,-0.3007856607437134,0.013315006159245968,-0.02479695901274681
1790963456086426600,2.076426513671875,-0.24005067348480225,0.05976160243153572,0.06094377860426903
1790963456096506400,2.08650634765625,-0.14295528829097748,0.09541440010070801,0.1736745834350586
1790963456106586400,2.09658642578125,-0.039921581745147705,0.17078958451747894,0.24730832874774933
1790963456116666400,2.106666259765625,0.022191587835550308,0.2221744805574417,0.27272874116897583
1790963456126745300,2.116745361328125,0.053403835743665695,0.2714666724205017,0.2351001352071762
1790963456136825300,2.126825439453125,0.079032763838768,0.2665906846523285,0.12783758342266083
1790963456146905300,2.1369052734375,-0.10804390907287598,0.27762147784233093,0.05970540642738342
1790963456156985600,2.146985595703125,-0.27904176712036133,0.11939110606908798,0.08684701472520828
1790963456167065300,2.1570654296875,-0.22027111053466797,-0.0652112290263176,0.18106672167778015
1790963456177145600,2.1671455078125,-0.05028900131583214,-0.2168143391609192,0.2665121257305145
1790963456187225300,2.177225341796875,0.07126033306121826,-0.12918488681316376,0.2568826675415039
1790963456197305300,2.187305419921875,-0.012956544756889343,-0.08022373169660568,0.18686522543430328
1790963456207385300,2.19738525390625,-0.13456180691719055,-0.0775885358452797,0.09308573603630066
1790963456217465300,2.20746533203125,-0.1849336326122284,-0.07029812783002853,0.016893496736884117
1790963456227545600,2.217545654296875,-0.22974051535129547,-0.059781573712825775,-0.01631372608244419
1790963456237625300,2.227625244140625,-0.2903718948364258,-0.06077040731906891,-0.033362749963998795
1790963456247705300,2.237705322265625,-0.4193384051322937,-0.08191856741905212,0.02286590076982975
1790963456257785300,2.247785400390625,-0.39625492691993713,-0.1620565503835678,0.02021791972219944
1790963456267865300,2.257865234375,-0.3682240843772888,-0.3309377133846283,0.057745322585105896
1790963456277945600,2.267945556640625,-0.29973265528678894,-0.35904818773269653,0.11270444095134735
1790963456288025300,2.278025390625,-0.29783859848976135,-0.17798490822315216,0.06939425319433212
1790963456298105600,2.288105712890625,-0.32501909136772156,-0.03220747038722038,-0.08268502354621887
1790963456308185300,2.298185302734375,-0.4179770052433014,-0.015541941858828068,-0.174238383769989
1790963456318265300,2.308265380859375,-0.30363231897354126,-0.006736998446285725,-0.26144251227378845
1790963456328345300,2.318345458984375,-0.12024731189012527,-0.0323353037238121,-0.30161604285240173
1790963456338425300,2.32842529296875,0.1112985610961914,-0.10669288784265518,-0.2837539613246918
1790963456348505600,2.338505615234375,0.239415243268013,-0.22945183515548706,-0.22768349945545197
1790963456358585300,2.34858544921875,0.2418147623538971,-0.24198786914348602,-0.19438253343105316
1790963456368665300,2.358665283203125,0.18518130481243134,-0.07258765399456024,-0.1761510670185089
1790963456378745300,2.368745361328125,0.17069770395755768,0.0738033801317215,-0.1786070317029953
1790963456388825300,2.378825439453125,0.22264878451824188,0.11363841593265533,-0.16978557407855988
1790963456398905600,2.388905517578125,0.27694159746170044,0.08578920364379883,-0.1478392630815506
1790963456408985300,2.3989853515625,0.3048211634159088,0.022072546184062958,-0.11509409546852112
1790963456419065600,2.409065673828125,0.3965071439743042,-0.053222209215164185,-0.003120958572253585
1790963456429145300,2.419145263671875,0.3528755009174347,-0.07483003288507462,0.04521328583359718
1790963456439225300,2.429225341796875,0.3102175295352936,-0.06088518723845482,0.06759129464626312
1790963456449305600,2.4393056640625,0.27359825372695923,-0.12703996896743774,0.09771218150854111
1790963456459385300,2.44938525390625,0.11015153676271439,-0.11022690683603287,0.06960251182317734
1790963456469465600,2.459465576171875,0.0263581033796072,-0.040161002427339554,0.05276601016521454
1790963456479545300,2.46954541015625,-0.045764826238155365,0.008871521800756454,0.05741269141435623
1790963456489625300,2.479625244140625,-0.1452392190694809,0.06503652036190033,0.09867864102125168
1790963456499705300,2.489705322265625,-0.042943473905324936,0.03743472322821617,0.14869306981563568
1790963456509785300,2.499785400390625,-0.003732952754944563,-0.020656276494264603,0.21787959337234497
1790963456519865600,2.509865478515625,0.0070706927217543125,0.00039414784987457097,0.2209656685590744
1790963456529945300,2.5199453125,0.006901581771671772,-0.021757492795586586,0.18141186237335205
1790963456540025600,2.530025634765625,0.06796679645776749,-0.04947806894779205,0.029741916805505753
1790963456550105300,2.540105224609375,0.07448408752679825,-0.0474250391125679,-0.09907198697328568
1790963456560185300,2.550185302734375,0.12275388091802597,-0.08215079456567764,-0.13591095805168152
1790963456570265600,2.560265625,0.18535521626472473,-0.1682470589876175,-0.05642306059598923
1790963456580345300,2.570345458984375,0.28646692633628845,-0.29037564992904663,0.1291060596704483
1790963456590425600,2.580425537109375,0.22621582448482513,-0.2745886743068695,0.2145748883485794
1790963456600505300,2.59050537109375,0.17988507449626923,-0.2320747822523117,0.26195386052131653
1790963456610585300,2.60058544921875,0.15394029021263123,-0.2789464294910431,0.36592552065849304
1790963456620665300,2.610665283203125,0.1340416967868805,-0.2749253213405609,0.39062127470970154
1790963456630745300,2.620745361328125,0.05451330915093422,-0.21486783027648926,0.39724960923194885
1790963456640825600,2.63082568359375,0.1226889044046402,-0.10624201595783234,0.32722899317741394
1790963456650905300,2.6409052734375,0.1785961091518402,-0.0314258337020874,0.3142889440059662
1790963456660985300,2.6509853515625,0.22541847825050354,-0.030783478170633316,0.32461509108543396
1790963456671065300,2.6610654296875,0.17861582338809967,0.03188043460249901,0.24587927758693695
1790963456681145300,2.671145263671875,0.20023669302463531,0.002993126632645726,0.10344250500202179
1790963456691225600,2.6812255859375,0.1155090183019638,0.011468104086816311,-0.04812039062380791
1790963456701304300,2.69130419921875,0.06538939476013184,0.08019071072340012,-0.12536831200122833
1790963456711385600,2.701385498046875,0.04484310373663902,0.029937924817204475,-0.13324300944805145
1790963456721464300,2.71146435546875,0.003914846573024988,0.0052179316990077496,-0.11641635745763779
1790963456731544600,2.721544677734375,-0.026461169123649597,0.020595023408532143,-0.04710519313812256
1790963456741624300,2.731624267578125,-0.010743724182248116,-0.0021947110071778297,0.04607295244932175
1790963456751704600,2.74170458984375,0.028783444315195084,-0.059170912951231,0.1408524513244629
1790963456761784300,2.751784423828125,0.09241728484630585,-0.15127579867839813,0.21882449090480804
1790963456771864300,2.7618642578125,0.23814812302589417,-0.36719584465026855,0.2804393768310547
1790963456781944600,2.771944580078125,0.31883177161216736,-0.4249262511730194,0.19690640270709991
1790963456792024300,2.7820244140625,0.3530544638633728,-0.3299611210823059,0.057016149163246155
1790963456802104300,2.792104248046875,0.33631277084350586,-0.16915014386177063,-0.07322840392589569
1790963456812184000,2.80218408203125,0.415545791387558,-0.11997727304697037,-0.04312936216592789
1790963456822264300,2.812264404296875,0.38708698749542236,0.10948841273784637,-0.045999716967344284
1790963456832344000,2.822343994140625,0.3079855144023895,0.30089351534843445,-0.03716760873794556
1790963456842424000,2.832424072265625,0.22965875267982483,0.2798662781715393,0.12072295695543289
1790963456852504300,2.84250439453125,0.1240585669875145,0.3509335219860077,0.2558477520942688
1790963456862584000,2.852583984375,0.050037600100040436,0.5846879482269287,0.19567656517028809
1790963456872664300,2.862664306640625,0.07920214533805847,0.7856876254081726,0.042453184723854065
1790963456882744000,2.872744140625,0.2317008674144745,0.7537262439727783,-0.08912002295255661
1790963456892824000,2.882823974609375,0.48581090569496155,0.5012298226356506,-0.17925125360488892
1790963456902904300,2.892904296875,0.7183471918106079,0.18796616792678833,-0.22901082038879395
1790963456912984000,2.902984130859375,0.780202329158783,-0.13344860076904297,-0.2505432665348053
1790963456923064300,2.913064208984375,0.6865682601928711,-0.46462467312812805,-0.23089393973350525
1790963456933144000,2.92314404296875,0.5856059789657593,-0.7951820492744446,-0.12990394234657288
1790963456943224000,2.93322412109375,0.4463103711605072,-0.9636850953102112,-0.02509550005197525
1790963456953304000,2.943303955078125,0.33745819330215454,-0.8866472840309143,0.0031707596499472857
1790963456963384000,2.953384033203125,0.25749173760414124,-0.7211792469024658,0.005673065781593323
1790963456973464300,2.96346435546875,0.10343850404024124,-0.37533873319625854,-0.05872323364019394
1790963456983544000,2.9735439453125,-0.1955260932445526,0.16703400015830994,-0.14828187227249146
1790963456993624300,2.983624267578125,-0.28302133083343506,0.46265339851379395,-0.1098676472902298
1790963457003704000,2.9937041015625,-0.24531735479831696,0.5371268391609192,0.15145184099674225
1790963457013784000,3.0037841796875,-0.39481043815612793,0.6786786317825317,0.31442904472351074
1790963457023864300,3.0138642578125,-0.6011130213737488,0.7617732286453247,0.42063218355178833
1790963457033944000,3.023944091796875,-0.6991239786148071,0.6526318788528442,0.5898470282554626
1790963457044024300,3.0340244140625,-0.5327762961387634,0.4999461770057678,0.6339175701141357
1790963457054104000,3.04410400390625,-0.48594167828559875,0.356515496969223,0.5310739874839783
1790963457064184000,3.05418408203125,-0.3959822356700897,0.14984169602394104,0.5138809084892273
1790963457074264000,3.06426416015625,-0.1658448874950409,-0.12469346076250076,0.5293623805046082
1790963457084344000,3.074343994140625,-0.02208213321864605,-0.08181790262460709,0.4222463071346283
1790963457094424300,3.08442431640625,0.006529804784804583,0.07430512458086014,0.2520564794540405
1790963457104504000,3.094504150390625,-0.0446510910987854,0.2345549762248993,0.13208825886249542
1790963457114584300,3.104584228515625,-0.046719834208488464,0.14672499895095825,0.05847422778606415
1790963457124664000,3.1146640625,0.05588297173380852,-0.17436914145946503,0.13375140726566315
1790963457134744000,3.124744140625,0.2951517403125763,-0.5131045579910278,0.3031553328037262
1790963457144824300,3.13482421875,0.4754917025566101,-0.7289927005767822,0.3391170799732208
1790963457154904000,3.144904052734375,0.5837710499763489,-0.9257954955101013,0.3392222821712494
1790963457164984300,3.154984375,0.5576400756835938,-1.2586355209350586,0.321133553981781
1790963457175064000,3.16506396484375,0.4525666832923889,-1.3426052331924438,0.27464595437049866
1790963457185144000,3.17514404296875,0.06450815498828888,-1.028705358505249,0.0140170156955719
1790963457195224300,3.185224365234375,-0.5122145414352417,-0.3252872824668884,-0.4377935826778412
1790963457205304000,3.195303955078125,-0.942794144153595,0.2520484924316406,-0.6195750832557678
1790963457215384300,3.20538427734375,-1.0000725984573364,0.5695433616638184,-0.6975029110908508
1790963457225464000,3.215464111328125,-0.8054096698760986,0.6316866278648376,-0.7387044429779053
1790963457235544300,3.22554443359375,-0.38757941126823425,0.369029700756073,-0.7840995788574219
1790963457245624000,3.2356240234375,-0.23489932715892792,0.04904131218791008,-0.7750771045684814
1790963457255704000,3.2457041015625,-0.19001680612564087,-0.11998499184846878,-0.8149275779724121
1790963457265784300,3.255784423828125,-0.1480957269668579,-0.24053829908370972,-0.798361599445343
1790963457275864000,3.265864013671875,-0.09274085611104965,-0.3163380026817322,-0.6703458428382874
1790963457285944300,3.2759443359375,-0.04712463542819023,-0.3689676523208618,-0.5310718417167664
1790963457296024000,3.286024169921875,0.018021345138549805,-0.31855109333992004,-0.4149359464645386
1790963457306104000,3.29610400390625,0.0462186262011528,-0.21826016902923584,-0.3641257584095001
1790963457316184300,3.306184326171875,0.06718303263187408,-0.07695523649454117,-0.39667224884033203
1790963457326264000,3.31626416015625,0.11378435790538788,-0.052134040743112564,-0.363237589597702
1790963457336344300,3.32634423828125,0.11687389016151428,0.03831729665398598,-0.33127114176750183
1790963457346424000,3.336424072265625,0.12596991658210754,0.05342727154493332,-0.26244625449180603
1790963457356504300,3.34650439453125,0.1282714158296585,-0.11071319878101349,-0.07459327578544617
1790963457366584000,3.356583984375,0.07213624566793442,-0.32339057326316833,0.1945449858903885
1790963457376664000,3.3666640625,-0.0728403851389885,-0.39898255467414856,0.43552669882774353
1790963457386744300,3.376744384765625,-0.3474959135055542,-0.2960638701915741,0.5617658495903015
1790963457396824000,3.386823974609375,-0.34063029289245605,-0.03130172938108444,0.4972537159919739
1790963457406904300,3.396904296875,-0.21996484696865082,0.008402006700634956,0.35719355940818787
1790963457416984000,3.406984130859375,-0.07342095673084259,-0.054309576749801636,0.21534906327724457
1790963457427064000,3.41706396484375,0.013973073102533817,-0.039154861122369766,0.005043760873377323
1790963457437144300,3.427144287109375,0.07097724080085754,0.004593420308083296,-0.20189157128334045
1790963457447224000,3.43722412109375,0.06432412564754486,-0.008813465014100075,-0.3354320526123047
1790963457457304300,3.44730419921875,0.045890793204307556,-0.0349569171667099,-0.42142659425735474
1790963457467384000,3.457384033203125,0.0539146289229393,-0.020986774936318398,-0.4464714825153351
1790963457477464300,3.46746435546875,0.06107134371995926,-0.028915271162986755,-0.40063875913619995
1790963457487544000,3.4775439453125,0.03448846936225891,-0.013405021280050278,-0.32561057806015015
1790963457497624000,3.4876240234375,-0.017600830644369125,-0.01257997378706932,-0.24215324223041534
1790963457507704300,3.497704345703125,-0.09274351596832275,-0.020713001489639282,-0.1649109274148941
1790963457517784000,3.5077841796875,-0.1699269860982895,-0.06197335571050644,-0.12183189392089844
1790963457527864300,3.5178642578125,-0.22727443277835846,-0.10943061858415604,-0.12269768863916397
1790963457537944000,3.527944091796875,-0.23683571815490723,-0.1003447100520134,-0.15876302123069763
1790963457548024000,3.538024169921875,-0.20217680931091309,-0.06957694888114929,-0.2071515917778015
1790963457558104300,3.548104248046875,-0.14684909582138062,-0.048408545553684235,-0.227944478392601
1790963457568184000,3.55818408203125,-0.07544176280498505,-0.02100115641951561,-0.20758114755153656
1790963457578264300,3.568264404296875,-0.019839750602841377,-0.017959026619791985,-0.13027678430080414
1790963457588344000,3.578343994140625,-0.016865000128746033,-0.003094326937571168,-0.01666446402668953
1790963457598424300,3.58842431640625,-0.06768343597650528,-0.01456056721508503,0.09752309322357178
1790963457608504000,3.598504150390625,-0.10048133134841919,0.0024322650860995054,0.14223410189151764
1790963457618584000,3.608583984375,-0.10925618559122086,0.0036570527590811253,0.14341601729393005
1790963457628664300,3.618664306640625,-0.10820529609918594,-0.02516021393239498,0.1141928881406784
1790963457638744000,3.628744140625,-0.09722641855478287,-0.020533237606287003,0.04659386724233627
1790963457648824300,3.63882421875,-0.06632229685783386,-0.014453774318099022,-0.02135508880019188
1790963457658904000,3.648904052734375,-0.026159964501857758,0.005684783682227135,-0.05155027657747269
1790963457668984000,3.658984130859375,0.007786816451698542,0.0369926393032074,-0.006857106927782297
1790963457679064300,3.669064208984375,0.009110141545534134,0.009534915909171104,0.07239110767841339
1790963457689144000,3.67914404296875,-0.008020908571779728,-0.01888793706893921,0.0605219341814518
1790963457699224300,3.689224365234375,-0.02118225023150444,0.005855225957930088,-0.04994944855570793
1790963457709304000,3.699303955078125,-0.02231835573911667,0.03044152818620205,-0.12641866505146027
1790963457719384300,3.70938427734375,-0.030399717390537262,0.04079589992761612,-0.15155836939811707
1790963457729464000,3.719464111328125,-0.06337684392929077,0.02431359514594078,-0.1661844402551651
1790963457739544000,3.7295439453125,-0.08376067876815796,0.008816128596663475,-0.22071559727191925
1790963457749624300,3.739624267578125,-0.04115462675690651,0.03560300171375275,-0.33182960748672485
1790963457759704000,3.7497041015625,0.0057066213339567184,0.11753302067518234,-0.3670333921909332
1790963457769784300,3.759784423828125,0.02202247828245163,0.1494549959897995,-0.21254555881023407
1790963457779864000,3.769864013671875,0.01452834252268076,0.03171105682849884,0.07194902747869492
1790963457789944000,3.779944091796875,-0.04195171222090721,0.09994923323392868,0.30467602610588074
1790963457800024300,3.7900244140625,-0.09043402224779129,0.08319901674985886,0.4521839916706085
1790963457810104800,3.800104736328125,-0.09045746177434921,-0.018573418259620667,0.4571014940738678
1790963457820184800,3.810184814453125,-0.09047956764698029,-0.03509753197431564,0.32253995537757874
1790963457830264800,3.820264892578125,-0.14179521799087524,0.03954474627971649,0.10016361624002457
1790963457840344800,3.8303447265625,-0.23480239510536194,0.03760809451341629,-0.02544304169714451
1790963457850424800,3.8404248046875,-0.3368736207485199,-0.04935210198163986,-0.11209431290626526
1790963457860504800,3.8505048828125,-0.4543243646621704,-0.0716124027967453,-0.1900908499956131
1790963457870584800,3.860584716796875,-0.5378314852714539,-0.10702631622552872,-0.2504423260688782
1790963457880664800,3.870664794921875,-0.6417344808578491,-0.1756109744310379,-0.31967654824256897
1790963457890744600,3.88074462890625,-0.8406321406364441,-0.20400719344615936,-0.3792152404785156
1790963457900824800,3.890824951171875,-0.9538947343826294,-0.17644613981246948,-0.3765403628349304
1790963457910904800,3.90090478515625,-1.219087839126587,-0.21781328320503235,-0.34044891595840454
1790963457920984800,3.91098486328125,-1.4261581897735596,-0.2521166503429413,-0.26399755477905273
1790963457931064800,3.92106494140625,-1.4705051183700562,-0.2642580270767212,-0.17362958192825317
1790963457941144800,3.931144775390625,-1.2999224662780762,-0.27368080615997314,-0.08302964270114899
1790963457951224800,3.941224853515625,-0.782075047492981,-0.3323840796947479,0.03296221047639847
1790963457961304800,3.951304931640625,-0.2440480887889862,-0.2670697867870331,0.011938684619963169
1790963457971384800,3.961384765625,-0.32274022698402405,-0.004143878817558289,-0.040220655500888824
1790963457981464800,3.97146484375,-0.3631369173526764,-0.10627078264951706,0.038168955594301224
1790963457991544800,3.981544921875,-0.41890403628349304,-0.36907950043678284,0.1529671847820282
1790963458001621800,3.991621826171875,-0.6204808354377747,-0.5569287538528442,0.2624734342098236
1790963458011701800,4.00170166015625,-0.4081358313560486,-0.5280025601387024,0.22745206952095032
1790963458021781800,4.01178173828125,-0.08834637701511383,-0.028958147391676903,-0.02056998945772648
1790963458031861800,4.02186181640625,0.05112869665026665,-0.011786085553467274,-0.08913786709308624
1790963458041941800,4.031941650390625,0.13679753243923187,0.02792910300195217,-0.08351913094520569
1790963458052021800,4.042021728515625,0.18629637360572815,0.05898742005228996,-0.10564680397510529
1790963458062101800,4.052101806640625,0.2232716977596283,0.09408947825431824,-0.16384725272655487
1790963458072181800,4.062181640625,0.23357334733009338,0.1756407916545868,-0.2251678705215454
1790963458082261800,4.07226171875,0.22910748422145844,0.20777396857738495,-0.2525606155395508
1790963458092342000,4.082342041015625,0.19656126201152802,0.24294820427894592,-0.2807951867580414
1790963458102421800,4.092421875,0.12039698660373688,0.2579638957977295,-0.2592928111553192
1790963458112501800,4.102501708984375,0.0540911965072155,0.2765690088272095,-0.2373233437538147
1790963458122581800,4.112581787109375,0.03032062202692032,0.32034552097320557,-0.2086016833782196
1790963458132661800,4.122661865234375,0.03361202031373978,0.3486786186695099,-0.2027195543050766
1790963458142741800,4.13274169921875,0.020494356751441956,0.329166442155838,-0.17326979339122772
1790963458152821800,4.14282177734375,0.042563438415527344,0.31228119134902954,-0.12926851212978363
1790963458162901800,4.15290185546875,0.07423268258571625,0.32102781534194946,-0.08504485338926315
1790963458172981800,4.162981689453125,0.08405708521604538,0.29230669140815735,-0.042621761560440063
1790963458183061800,4.173061767578125,0.10829877853393555,0.23345829546451569,0.003177683800458908
1790963458193141800,4.183141845703125,0.11260431259870529,0.2613237500190735,-0.006971622817218304
1790963458203221800,4.1932216796875,0.14321760833263397,0.34934893250465393,-0.015837019309401512
1790963458213302000,4.203302001953125,0.22841666638851166,0.44404828548431396,0.011169830337166786
1790963458223381800,4.2133818359375,0.3090475797653198,0.4844377934932709,0.08394177258014679
1790963458233461800,4.223461669921875,0.3591485619544983,0.4683469533920288,0.18107737600803375
1790963458243541800,4.233541748046875,0.39833271503448486,0.4840284585952759,0.24224458634853363
1790963458253621800,4.243621826171875,0.3771456778049469,0.42157652974128723,0.263081431388855
1790963458263701800,4.25370166015625,0.3388422429561615,0.4793607294559479,0.20031870901584625
1790963458273781800,4.26378173828125,0.29925835132598877,0.5210229754447937,0.17060689628124237
1790963458283861800,4.27386181640625,0.26288995146751404,0.5341374278068542,0.16189409792423248
1790963458293941800,4.283941650390625,0.19924333691596985,0.4169897735118866,0.16132338345050812
1790963458304021800,4.294021728515625,0.13259239494800568,0.3054773509502411,0.11577107012271881
1790963458314101800,4.304101806640625,0.10768119245767593,0.21787427365779877,0.0548723042011261
1790963458324181800,4.314181640625,0.127132385969162,0.20246575772762299,0.01733877696096897
1790963458334262000,4.324261962890625,0.17060768604278564,0.18470486998558044,0.051361192017793655
1790963458344341800,4.334341796875,0.2551041841506958,0.3257583975791931,0.08998341858386993
1790963458354421800,4.344421875,0.3250260353088379,0.3800725042819977,0.19194254279136658
1790963458364501800,4.354501708984375,0.37661677598953247,0.341348797082901,0.3049023747444153
1790963458374581800,4.364581787109375,0.4418032467365265,0.2899862825870514,0.41226133704185486
1790963458384661800,4.374661865234375,0.45321327447891235,0.23220127820968628,0.4886133670806885
1790963458394743800,4.384743896484375,0.4831711947917938,0.29055672883987427,0.5673004388809204
1790963458404823800,4.39482373046875,0.5663595795631409,0.411358505487442,0.6451324224472046
1790963458414903800,4.40490380859375,0.6171579957008362,0.5188418626785278,0.7802116274833679
1790963458424983800,4.41498388671875,0.6577816009521484,0.5384493470191956,0.828385591506958
1790963458435063800,4.425063720703125,0.7173466682434082,0.49712055921554565,0.7508231401443481
1790963458445143800,4.435143798828125,0.6940754055976868,0.3383346498012543,0.6835042834281921
1790963458455223800,4.445223876953125,0.6819314360618591,0.08405229449272156,0.6997732520103455
1790963458465303800,4.4553037109375,0.5716968178749084,-0.05687020719051361,0.697413980960846
1790963458475383800,4.4653837890625,0.4718756675720215,-0.18478263914585114,0.6960027813911438
1790963458485463800,4.4754638671875,0.3834794759750366,-0.29379886388778687,0.6902626156806946
1790963458495543800,4.485543701171875,0.29597094655036926,-0.3106659948825836,0.6572412252426147
1790963458505623800,4.495623779296875,0.21510165929794312,-0.33780068159103394,0.5579386353492737
1790963458515703600,4.50570361328125,0.17568394541740417,-0.35640791058540344,0.45334911346435547
1790963458525783800,4.51578369140625,0.051899682730436325,-0.35702815651893616,0.38427790999412537
1790963458535863800,4.52586376953125,-0.06103698909282684,-0.4981285631656647,0.26458796858787537
1790963458545943800,4.53594384765625,-0.17916256189346313,-0.5304412245750427,0.13781511783599854
1790963458556023800,4.54602392578125,-0.2703015208244324,-0.5654183626174927,0.006551908794790506
1790963458566103800,4.556103759765625,-0.29224011301994324,-0.6223413348197937,-0.0708070620894432
1790963458576183800,4.566183837890625,-0.27521613240242004,-0.5450766086578369,-0.09512678533792496
1790963458586263800,4.576263916015625,-0.30008071660995483,-0.476583868265152,-0.02027571015059948
1790963458596343800,4.58634375,-0.21655893325805664,-0.4998031556606293,-0.058395933359861374
1790963458606423800,4.596423828125,-0.22805847227573395,-0.37457627058029175,-0.17785735428333282
1790963458616503800,4.60650390625,-0.29704925417900085,-0.3798770308494568,-0.29442816972732544
1790963458626583800,4.616583740234375,-0.38043707609176636,-0.492501825094223,-0.39924246072769165
1790963458636663600,4.62666357421875,-0.49556925892829895,-0.4284472167491913,-0.5220181941986084
1790963458646743800,4.636743896484375,-0.7026960849761963,-0.4654044508934021,-0.5308417677879333
1790963458656823800,4.64682373046875,-0.4733204245567322,-0.7626584768295288,-0.3039122223854065
1790963458666903800,4.65690380859375,-0.44065621495246887,-0.491865873336792,-0.34928956627845764
1790963458676983800,4.66698388671875,-0.40148645639419556,-0.4072093069553375,-0.31097304821014404
1790963458687063800,4.677063720703125,-0.27709656953811646,-0.2852210998535156,-0.26496589183807373
1790963458697143800,4.687143798828125,-0.2617168426513672,-0.18600767850875854,-0.35691550374031067
1790963458707223800,4.697223876953125,-0.3171912729740143,-0.04170483723282814,-0.3921339511871338
1790963458717303800,4.7073037109375,0.0445895716547966,0.12352300435304642,-0.3985564410686493
1790963458727383800,4.7173837890625,0.2521915137767792,0.3211929500102997,-0.29669317603111267
1790963458737463800,4.7274638671875,0.40358155965805054,0.23953376710414886,-0.06475555896759033
1790963458747543800,4.737543701171875,0.4502529203891754,0.18523457646369934,0.019901270046830177
1790963458757623600,4.74762353515625,0.4281558692455292,0.013550962321460247,-0.029136845842003822
1790963458767703800,4.757703857421875,0.3388283848762512,-0.0901181772351265,-0.1651277095079422
1790963458777783800,4.76778369140625,0.2653757333755493,-0.01745169423520565,-0.3160514533519745
1790963458787863800,4.77786376953125,0.1355370581150055,-0.020319918170571327,-0.47535985708236694
1790963458797943800,4.78794384765625,0.029144303873181343,0.007258445490151644,-0.6114063858985901
1790963458808023300,4.798023193359375,0.009308813139796257,0.11266343295574188,-0.5021345019340515
1790963458818103300,4.808103271484375,-0.029568545520305634,0.09539362788200378,-0.32314664125442505
1790963458828183300,4.818183349609375,-0.13797837495803833,0.1252676397562027,-0.21703137457370758
1790963458838263300,4.82826318359375,-0.2599189281463623,0.09590069949626923,-0.10047893971204758
1790963458848343000,4.838343017578125,-0.26015087962150574,-0.03153156116604805,-0.2673853635787964
1790963458858423300,4.84842333984375,-0.23120446503162384,-0.06870502978563309,-0.3791326582431793
1790963458868503300,4.85850341796875,-0.14329217374324799,-0.03669489920139313,-0.45360904932022095
1790963458878583300,4.868583251953125,-0.17559179663658142,-0.10192343592643738,-0.5268398523330688
1790963458888663300,4.878663330078125,-0.2652535140514374,-0.18055114150047302,-0.5676261782646179
1790963458898743000,4.888742919921875,-0.27720311284065247,-0.1990891396999359,-0.5761365294456482
1790963458908823300,4.8988232421875,-0.2716568112373352,-0.24468325078487396,-0.5982679724693298
1790963458918903300,4.9089033203125,-0.22268180549144745,-0.2647869288921356,-0.5614489316940308
1790963458928983300,4.9189833984375,-0.09623891860246658,-0.16495220363140106,-0.4473966658115387
1790963458939063300,4.929063232421875,0.04186249524354935,-0.07708492875099182,-0.2630353569984436
1790963458949143300,4.939143310546875,0.1366174966096878,-0.0021752698812633753,-0.02022351324558258
1790963458959223300,4.949223388671875,0.1363125741481781,0.011905928142368793,0.05583157390356064
1790963458969303000,4.959302978515625,0.0400715209543705,-0.042942941188812256,0.037280794233083725
1790963458979383300,4.96938330078125,-0.05312313884496689,-0.09109608829021454,-0.023870712146162987
1790963458989463300,4.97946337890625,-0.13588166236877441,-0.1321961134672165,-0.09001244604587555
1790963458999544000,4.9895439453125,-0.23443832993507385,-0.1749502420425415,-0.09060660004615784
1790963459009624300,4.999624267578125,-0.3037942349910736,-0.1846582591533661,-0.060558151453733444
1790963459019704300,5.009704345703125,-0.2731902599334717,-0.2695542573928833,0.09468522667884827
1790963459029784300,5.019784423828125,-0.21027760207653046,-0.17490336298942566,0.23538215458393097
1790963459039864300,5.0298642578125,-0.2397148609161377,-0.1335625946521759,0.3848981559276581
1790963459049944000,5.039944091796875,-0.27346643805503845,-0.09475340694189072,0.549780547618866
1790963459060024300,5.0500244140625,-0.3037889003753662,-0.06819343566894531,0.6795175075531006
1790963459070104300,5.060104248046875,-0.4166307747364044,-0.08146663010120392,0.7003468871116638
1790963459080184300,5.070184326171875,-0.25293824076652527,-0.06010967493057251,0.6611505150794983
1790963459090264300,5.080264404296875,0.04092026874423027,-0.21474745869636536,0.5219367146492004
1790963459100344000,5.090343994140625,0.41185280680656433,-0.21891982853412628,0.42639365792274475
1790963459110424300,5.10042431640625,0.8570712804794312,-0.13786226511001587,0.4450991749763489
1790963459120504000,5.110504150390625,1.2039706707000732,-0.048106011003255844,0.5042221546173096
1790963459130584300,5.120584228515625,1.3099967241287231,0.01085824053734541,0.5820344090461731
1790963459140664300,5.130664306640625,1.1697351932525635,0.07248645275831223,0.6611214876174927
1790963459150744300,5.140744384765625,0.873755693435669,0.05812881514430046,0.6907957792282104
1790963459160824300,5.15082421875,0.5073828101158142,0.06468632072210312,0.6611377000808716
1790963459170904000,5.160904052734375,0.17225006222724915,0.0965220108628273,0.5660695433616638
1790963459180984300,5.170984375,-0.049905240535736084,0.07983038574457169,0.4005564749240875
1790963459191064300,5.181064208984375,-0.08900763839483261,0.08772452920675278,0.2139572948217392
1790963459201144300,5.191144287109375,-0.008449943736195564,0.07655230164527893,0.022853650152683258
1790963459211224300,5.201224365234375,0.06012884899973869,0.0718185305595398,-0.11043756455183029
1790963459221304000,5.211303955078125,0.04494643583893776,0.0668240338563919,-0.1488984078168869
1790963459231384300,5.22138427734375,0.024216922000050545,0.05024932324886322,-0.12600266933441162
1790963459241464000,5.231464111328125,0.012626312673091888,0.0508035272359848,-0.048949431627988815
1790963459251544300,5.24154443359375,0.008726646192371845,0.052566006779670715,0.037038445472717285
1790963459261624300,5.251624267578125,0.014940333552658558,0.052086904644966125,0.052974533289670944
1790963459271704300,5.261704345703125,0.0162386242300272,0.06454703211784363,0.023851269856095314
1790963459281784300,5.271784423828125,0.015061773359775543,0.05474233999848366,-0.005661347880959511
1790963459291864000,5.281864013671875,0.013794375583529472,0.05549122020602226,-0.020207000896334648
1790963459301944300,5.2919443359375,0.011715511791408062,0.050155311822891235,-0.01407560519874096
1790963459312024300,5.3020244140625,0.012711534276604652,0.03388126939535141,0.008808671496808529
1790963459322104300,5.312104248046875,0.007937551476061344,0.03305249288678169,0.003299922915175557
1790963459332184300,5.322184326171875,0.00926380604505539,0.028139758855104446,-0.0003502056933939457
1790963459342264000,5.33226416015625,0.012762933038175106,0.021748172119259834,-0.00019094864546786994
1790963459352344300,5.34234423828125,0.013354687951505184,0.020413661375641823,0.002478870330378413
1790963459362424000,5.352424072265625,0.009639844298362732,0.03129826858639717,0.0000881506348378025
1790963459372504300,5.36250439453125,0.016891632229089737,0.02576288767158985,-0.006090116687119007
1790963459382584300,5.372584228515625,0.02075454592704773,-0.006823285017162561,-0.015672702342271805
1790963459392664300,5.382664306640625,0.00321896281093359,-0.006325540132820606,0.01786661520600319
1790963459402744300,5.392744384765625,-0.014915565960109234,-0.02239239029586315,0.03886643797159195
1790963459412824000,5.402823974609375,-0.01691506803035736,-0.023198796436190605,0.0021076255943626165
1790963459422904300,5.412904296875,0.007918110117316246,-0.03769171983003616,-0.022048844024538994
1790963459432984300,5.422984375,0.028084898367524147,-0.056171927601099014,-0.005985986907035112
1790963459443064300,5.433064208984375,0.00875301193445921,-0.060809288173913956,-0.007182811852544546
1790963459453144300,5.443144287109375,-0.009151154197752476,-0.059358131140470505,-0.008377239108085632
1790963459463224000,5.45322412109375,-0.011596734635531902,-0.057502176612615585,-0.01593901962041855
1790963459473304300,5.46330419921875,-0.00887738075107336,-0.06119837611913681,-0.03449352830648422
1790963459483384000,5.473384033203125,-0.01245027780532837,-0.06535796821117401,-0.01558481901884079
1790963459493464300,5.48346435546875,-0.013423663564026356,-0.06421440839767456,0.02063443884253502
1790963459503544300,5.49354443359375,-0.017420003190636635,-0.05267013609409332,0.03493987396359444
1790963459513624000,5.5036240234375,-0.01618163287639618,-0.04813104495406151,0.041785262525081635
1790963459523704300,5.513704345703125,0.0006143912323750556,-0.06077546626329422,0.02985217049717903
1790963459533784000,5.5237841796875,0.017702830955386162,-0.06411480158567429,0.004876514431089163
1790963459543864300,5.5338642578125,0.014997058548033237,-0.07163131237030029,-0.0184708870947361
1790963459553944300,5.5439443359375,0.009042763151228428,-0.054837416857481,-0.04769961163401604
1790963459564024300,5.5540244140625,0.006662430241703987,-0.03948136419057846,-0.049122005701065063
1790963459574104300,5.564104248046875,0.012385296635329723,-0.0036477316170930862,-0.022906381636857986
1790963459584184000,5.57418408203125,0.026285134255886078,0.008460862562060356,0.008859537541866302
1790963459594265300,5.584265380859375,0.04026433080434799,0.01847860962152481,0.02075774222612381
1790963459604345300,5.594345458984375,0.06806454062461853,0.019989952445030212,0.029263347387313843
1790963459614425000,5.604425048828125,0.12390463054180145,0.01161457784473896,0.02605716697871685
1790963459624505300,5.61450537109375,0.17489032447338104,0.006768424063920975,0.005005677696317434
1790963459634585000,5.624585205078125,0.17899131774902344,0.005544701125472784,-0.008974053896963596
1790963459644665300,5.634665283203125,0.12135465443134308,0.01266679260879755,-0.009398295544087887
1790963459654745300,5.644745361328125,0.05829339846968651,0.041559960693120956,-0.018400313332676888
1790963459664825000,5.6548251953125,0.042096056044101715,0.053466953337192535,-0.031196800991892815
1790963459674905300,5.6649052734375,0.0714440867304802,0.06190571188926697,-0.05139155313372612
1790963459684985000,5.674985107421875,0.11534150689840317,0.03616679087281227,-0.06547940522432327
1790963459695065300,5.6850654296875,0.14322027564048767,-0.012750682421028614,-0.08863559365272522
1790963459705145300,5.695145263671875,0.16447123885154724,-0.03503654524683952,-0.11221868544816971
1790963459715225300,5.705225341796875,0.1744796633720398,-0.03535958752036095,-0.09265004098415375
1790963459725305300,5.715305419921875,0.19863294064998627,-0.020832844078540802,-0.033606961369514465
1790963459735385000,5.725385009765625,0.21278390288352966,-0.010521883144974709,0.037348438054323196
1790963459745465300,5.73546533203125,0.2178891897201538,-0.001356347929686308,0.09538883715867996
1790963459755545000,5.745545166015625,0.21696028113365173,0.01750815287232399,0.1353738009929657
1790963459765625300,5.755625244140625,0.20029021799564362,0.004319647327065468,0.13220544159412384
1790963459775705300,5.765705322265625,0.16642732918262482,-0.05645368993282318,0.08916875720024109
1790963459785785000,5.77578515625,0.1660614013671875,-0.10380628705024719,0.04374827817082405
1790963459795865300,5.785865234375,0.15835927426815033,-0.14920227229595184,-0.015427958220243454
1790963459805945900,5.79594580078125,0.15076234936714172,-0.2065257430076599,-0.023307720199227333
1790963459816025900,5.80602587890625,0.15744155645370483,-0.2280760407447815,0.010522682219743729
1790963459826105900,5.81610595703125,0.1333916187286377,-0.2201123982667923,0.013628194108605385
1790963459836185900,5.826185791015625,0.07588464766740799,-0.1768094003200531,-0.004974518436938524
1790963459846265900,5.836265869140625,-0.005931125953793526,-0.15993081033229828,-0.0411761999130249
1790963459856345900,5.846345947265625,-0.06237948685884476,-0.18342521786689758,0.016508402302861214
1790963459866426000,5.856426025390625,-0.12424737960100174,-0.27740177512168884,0.08101176470518112
1790963459876505900,5.866505859375,-0.16964788734912872,-0.36814525723457336,0.090286485850811
1790963459886585900,5.8765859375,-0.1540771871805191,-0.43577277660369873,0.07040093094110489
1790963459896665900,5.886665771484375,-0.12685488164424896,-0.43472322821617126,0.09403488785028458
1790963459906745900,5.896745849609375,-0.09133097529411316,-0.46824949979782104,0.1279771327972412
1790963459916825900,5.906825927734375,-0.1565275639295578,-0.5295730233192444,0.10692485421895981
1790963459926905900,5.91690576171875,-0.24584145843982697,-0.48653608560562134,0.1540396362543106
1790963459936985900,5.92698583984375,-0.18050026893615723,-0.3714236319065094,0.22620996832847595
1790963459947065900,5.93706591796875,-0.2781163156032562,-0.4150712192058563,0.19209140539169312
1790963459957145900,5.947145751953125,-0.1958664357662201,-0.26300445199012756,0.1677437275648117
1790963459967225900,5.957225830078125,0.008759669028222561,-0.11718068271875381,0.06204952299594879
1790963459977305900,5.967305908203125,0.07196313887834549,-0.10207896679639816,0.02448403835296631
1790963459987386000,5.97738623046875,0.04680692031979561,-0.12436030060052872,0.042634546756744385
1790963459997465900,5.9874658203125,-0.0070792147889733315,-0.08331938832998276,0.05138116702437401
1790963460007545900,5.9975458984375,-0.06603360921144485,-0.09053602814674377,0.07904981076717377
1790963460017625900,6.0076259765625,-0.11135341972112656,-0.10149866342544556,0.11705178767442703
1790963460027707000,6.017706787109375,-0.11583152413368225,-0.0750390887260437,0.06601763516664505
1790963460037787000,6.027786865234375,-0.09286309778690338,-0.04541648179292679,-0.031797345727682114
1790963460047867000,6.037866943359375,-0.053952980786561966,-0.03731568157672882,0.001972869737073779
1790963460057947000,6.04794677734375,-0.014868960715830326,-0.03044206090271473,0.03857136145234108
1790963460068027000,6.05802685546875,-0.0034874093253165483,-0.018218684941530228,0.028840702027082443
1790963460078107000,6.06810693359375,0.0020277309231460094,0.006481601390987635,0.03009851463139057
1790963460088187000,6.078186767578125,0.01335548609495163,0.039315979927778244,0.00038962045800872147
1790963460098267000,6.088266845703125,0.007921839132905006,0.06143300235271454,-0.011876633390784264
1790963460108347000,6.098346923828125,0.007838482037186623,0.07821224629878998,-0.023999609053134918
1790963460118427000,6.108427001953125,0.01455816999077797,0.08609600365161896,-0.03015550598502159
1790963460128507000,6.1185068359375,0.021501297131180763,0.08970325440168381,-0.01390036940574646
1790963460138587000,6.1285869140625,0.03657372295856476,0.10122781991958618,-0.007738080807030201
1790963460148667000,6.1386669921875,0.057321347296237946,0.11371884495019913,0.002379534300416708
1790963460158747000,6.148746826171875,0.0754936933517456,0.11814608424901962,0.0023755396250635386
1790963460168827000,6.158826904296875,0.08376147598028183,0.11949790269136429,-0.0015464976895600557
1790963460178907000,6.168906982421875,0.08709681779146194,0.1402314156293869,-0.010785269550979137
1790963460188987000,6.17898681640625,0.0815017819404602,0.12877050042152405,-0.00115421402733773
1790963460199067000,6.18906689453125,0.08126822113990784,0.1335410177707672,0.01901310496032238
1790963460209147000,6.19914697265625,0.07893343269824982,0.13528139889240265,0.04077858850359917
1790963460219227000,6.209226806640625,0.08512821048498154,0.12689350545406342,0.0711817666888237
1790963460229307000,6.219306884765625,0.10106909275054932,0.14469993114471436,0.10936857014894485
1790963460239387000,6.229386962890625,0.10850463807582855,0.1469188779592514,0.13540630042552948
1790963460249467000,6.239466796875,0.10722552239894867,0.13956615328788757,0.12280873954296112
1790963460259547000,6.249546875,0.09859848022460938,0.14657452702522278,0.08928700536489487
1790963460269627000,6.259626953125,0.06955137848854065,0.15817712247371674,0.05787821486592293
1790963460279707000,6.269706787109375,0.053759634494781494,0.16344645619392395,0.037942856550216675
1790963460289787000,6.279786865234375,0.05932830274105072,0.16449306905269623,0.028598088771104813
1790963460299867000,6.289866943359375,0.050462376326322556,0.18454107642173767,0.024324780330061913
1790963460309947000,6.29994677734375,0.01426389068365097,0.2001250982284546,0.010275274515151978
1790963460320027000,6.31002685546875,-0.0062219430692493916,0.19910697638988495,0.01617763750255108
1790963460330107000,6.32010693359375,0.007677094545215368,0.19696499407291412,0.02804148755967617
1790963460340187000,6.330186767578125,0.0185244157910347,0.19143255054950714,0.036617930978536606
1790963460350267000,6.340266845703125,0.016941964626312256,0.18923437595367432,0.037583328783512115
1790963460360347000,6.350346923828125,0.01751028373837471,0.19119152426719666,0.03256832808256149
1790963460370427000,6.360427001953125,0.020591294392943382,0.19313830137252808,0.027941353619098663
1790963460380507000,6.3705068359375,0.027774639427661896,0.18406757712364197,0.026099244132637978
1790963460390587000,6.3805869140625,0.025431856513023376,0.17717771232128143,0.020859742537140846
1790963460400667000,6.3906669921875,0.0183478482067585,0.1682063192129135,0.01751880533993244
1790963460410747600,6.40074755859375,0.018798455595970154,0.162642702460289,0.023517576977610588
1790963460420828000,6.410827880859375,0.022606242448091507,0.158384308218956,0.028378911316394806
1790963460430908000,6.420907958984375,0.025194834917783737,0.15572035312652588,0.017975006252527237
1790963460440988000,6.43098779296875,0.02474050037562847,0.1465529501438141,0.01525858137756586
1790963460451068000,6.44106787109375,0.02401399053633213,0.13241823017597198,0.015283348970115185
1790963460461148000,6.45114794921875,0.02280304953455925,0.12493128329515457,0.01780110038816929
1790963460471228000,6.461227783203125,0.02322995476424694,0.11761424690485,0.01607643812894821
1790963460481308000,6.471307861328125,0.02202620543539524,0.11631542444229126,0.006972688250243664
1790963460491388000,6.481387939453125,0.022290391847491264,0.1102500781416893,0.003961718175560236
1790963460501468000,6.491468017578125,0.023138608783483505,0.1058979332447052,0.007124488707631826
1790963460511548000,6.5015478515625,0.02544996701180935,0.10103713721036911,0.009520268067717552
1790963460521628000,6.5116279296875,0.021440310403704643,0.10084884613752365,0.008323709480464458
1790963460531707600,6.521707763671875,0.02467045933008194,0.10159586369991302,0.005911152344197035
1790963460541788000,6.531787841796875,0.02371491678059101,0.1096002608537674,0.0011835087789222598
1790963460551868000,6.541867919921875,0.02328455075621605,0.08948647230863571,0.009428922086954117
1790963460561948000,6.551947998046875,0.028621258214116096,0.10246991366147995,0.016885505989193916
1790963460572028000,6.56202783203125,0.029385585337877274,0.11051798611879349,0.0009017463307827711
1790963460582108000,6.57210791015625,0.019331352785229683,0.09936334192752838,0.002537193475291133
1790963460592188000,6.58218798828125,0.025770876556634903,0.10647637397050858,0.00027031084755435586
1790963460602268000,6.592267822265625,0.020451745018363,0.10818452388048172,-0.0025249430909752846
1790963460612348000,6.602347900390625,0.019597936421632767,0.10594826936721802,0.008325307630002499
1790963460622428000,6.612427978515625,0.03150945529341698,0.1155066192150116,0.010981811210513115
1790963460632508000,6.6225078125,0.027580494061112404,0.10640101134777069,0.0063095614314079285
1790963460642588000,6.632587890625,0.03816176578402519,0.11448423564434052,0.01317918486893177
1790963460652667600,6.642667724609375,0.033429596573114395,0.11693301051855087,0.0047058057971298695
1790963460662748000,6.652747802734375,0.02792111411690712,0.12282365560531616,-0.002584864152595401
1790963460672828000,6.662827880859375,0.02756265178322792,0.11970482766628265,0.0025939189363271
1790963460682908000,6.672907958984375,0.02701004594564438,0.1224185898900032,0.015149923972785473
1790963460692988000,6.68298779296875,0.031255923211574554,0.11949869990348816,0.017412545159459114
1790963460703068000,6.69306787109375,0.03636519983410835,0.12667511403560638,0.011149057187139988
1790963460713148000,6.70314794921875,0.04332483559846878,0.1255217045545578,0.0028911277186125517
1790963460723228000,6.713227783203125,0.044262535870075226,0.12610813975334167,0.005741509143263102
1790963460733308000,6.723307861328125,0.04795234650373459,0.1272713989019394,0.001832787413150072
1790963460743388000,6.733387939453125,0.041130658239126205,0.13547126948833466,-0.0016913736471906304
1790963460753469000,6.743468994140625,0.0445440337061882,0.1369519978761673,0.005585714243352413
1790963460763549000,6.753548828125,0.04196156561374664,0.14569008350372314,0.011354653164744377
1790963460773629000,6.76362890625,0.0510871522128582,0.14875991642475128,0.009757822379469872
1790963460783709000,6.773708984375,0.0524006225168705,0.15637628734111786,0.012973588891327381
1790963460793789000,6.783788818359375,0.06054696813225746,0.1684446781873703,-0.005312473513185978
1790963460803868700,6.79386865234375,0.05715516582131386,0.18867537379264832,0.004113518632948399
1790963460813948700,6.80394873046875,0.0560680627822876,0.20595502853393555,0.02756611444056034
1790963460824028700,6.814028564453125,0.05206320062279701,0.22829948365688324,0.018665563315153122
1790963460834109000,6.82410888671875,0.0658506527543068,0.22652475535869598,0.0032828785479068756
1790963460844188700,6.834188720703125,0.051718320697546005,0.23680907487869263,0.018306568264961243
1790963460854268700,6.8442685546875,0.07845699042081833,0.25189563632011414,0.024600418284535408
1790963460864348700,6.8543486328125,0.05254336819052696,0.2688743472099304,0.028076641261577606
1790963460874428700,6.8644287109375,0.0645691379904747,0.28107455372810364,0.0347348116338253
1790963460884509000,6.874509033203125,0.046182673424482346,0.29921653866767883,0.02166454866528511
1790963460894588700,6.884588623046875,0.05492876097559929,0.32110053300857544,0.030901988968253136
1790963460904669000,6.8946689453125,0.06392225623130798,0.3382265269756317,0.05692240595817566
1790963460914748700,6.904748779296875,0.05921938270330429,0.333759605884552,0.028207402676343918
1790963460924828700,6.91482861328125,0.07003740966320038,0.32821595668792725,0.03304370492696762
1790963460934909000,6.924908935546875,0.06930849701166153,0.2907862961292267,0.057248909026384354
1790963460944988700,6.93498876953125,0.033608026802539825,0.27498283982276917,0.06881075352430344
1790963460955069000,6.94506884765625,0.02527393028140068,0.25200533866882324,0.06472200155258179
1790963460965148700,6.955148681640625,0.036968670785427094,0.26051414012908936,0.025365278124809265
1790963460975228700,6.965228759765625,0.025975674390792847,0.26637470722198486,0.0009824400767683983
1790963460985308700,6.97530859375,0.02918425016105175,0.2402094006538391,0.014385330490767956
1790963460995388700,6.985388671875,0.03355929255485535,0.2125101387500763,0.050083938986063004
1790963461005469000,6.995468994140625,0.02497539110481739,0.1810843050479889,0.0644727349281311
1790963461015548700,7.005548583984375,0.003314303932711482,0.16661082208156586,0.056232646107673645
1790963461025629000,7.01562890625,0.0007459514308720827,0.13631336390972137,0.0546235628426075
1790963461035710000,7.0257099609375,-0.00010093380114994943,0.12408732622861862,0.03232411667704582
1790963461045789700,7.035789794921875,0.0021702100057154894,0.06925284117460251,0.02028636261820793
1790963461055869700,7.04586962890625,0.0007688545738346875,0.00762915750965476,0.023392673581838608
1790963461065949700,7.05594970703125,0.0034796863328665495,-0.06070861965417862,0.025796443223953247
1790963461076029700,7.06602978515625,0.007498130202293396,-0.12084146589040756,0.014843128621578217
1790963461086109700,7.076109619140625,-0.008024636656045914,-0.18739865720272064,0.008377239108085632
1790963461096189700,7.086189697265625,-0.0480082705616951,-0.23828740417957306,0.007795338984578848
1790963461106270000,7.09627001953125,-0.058875299990177155,-0.25489941239356995,-0.04633207991719246
1790963461116349700,7.106349609375,-0.05729364976286888,-0.2951943576335907,-0.07714218646287918
1790963461126429700,7.1164296875,-0.07395145297050476,-0.3669492304325104,-0.034387268126010895
1790963461136509700,7.126509765625,-0.06793670356273651,-0.46870648860931396,-0.018274610862135887
1790963461146589700,7.136589599609375,-0.09322528541088104,-0.5360860824584961,-0.05140300467610359
1790963461156670000,7.146669921875,-0.0986112654209137,-0.5954939723014832,-0.1056409403681755
1790963461166749700,7.156749755859375,-0.08871389180421829,-0.6311728954315186,-0.14798946678638458
1790963461176829700,7.16682958984375,-0.0781019926071167,-0.7029136419296265,-0.12546391785144806
1790963461186909700,7.17690966796875,-0.0853191614151001,-0.7707558274269104,-0.10172875970602036
1790963461196989700,7.18698974609375,-0.09392702579498291,-0.814948320388794,-0.11003036051988602
1790963461207069700,7.197069580078125,-0.09623172879219055,-0.8357923626899719,-0.12443460524082184
1790963461217149700,7.207149658203125,-0.07626787573099136,-0.8595927357673645,-0.16381902992725372
1790963461227230000,7.21722998046875,-0.08411141484975815,-0.902815580368042,-0.1812984198331833
1790963461237309700,7.227309814453125,-0.08495031297206879,-0.9541655778884888,-0.14415743947029114
1790963461247389700,7.2373896484375,-0.09590895473957062,-0.991499662399292,-0.13537007570266724
1790963461257469700,7.2474697265625,-0.10134952515363693,-0.9933130145072937,-0.14834712445735931
1790963461267549700,7.2575498046875,-0.08321180194616318,-0.9852548241615295,-0.1705019623041153
1790963461277630000,7.2676298828125,-0.07422682642936707,-0.9873403310775757,-0.16646914184093475
1790963461287709700,7.277709716796875,-0.07370670884847641,-1.0048495531082153,-0.16036944091320038
1790963461297789700,7.287789794921875,-0.06919744610786438,-1.0046918392181396,-0.14948536455631256
1790963461307869700,7.29786962890625,-0.061339523643255234,-0.9977391958236694,-0.1228441596031189
1790963461317949700,7.30794970703125,-0.04970763623714447,-0.9747347831726074,-0.12604793906211853
1790963461328030700,7.31803076171875,-0.029152559116482735,-0.9507445096969604,-0.15273867547512054
1790963461338110700,7.32811083984375,-0.036441363394260406,-0.9226310849189758,-0.13949105143547058
1790963461348190700,7.338190673828125,-0.022582273930311203,-0.8922857046127319,-0.12006968259811401
1790963461358270700,7.348270751953125,-0.02087518759071827,-0.842521071434021,-0.11656869202852249
1790963461368350700,7.358350830078125,-0.027607392519712448,-0.7917433977127075,-0.106949083507061
1790963461378430700,7.3684306640625,-0.02226296067237854,-0.7481149435043335,-0.0900566577911377
1790963461388510700,7.3785107421875,-0.01757340133190155,-0.7113676071166992,-0.07493602484464645
1790963461398590700,7.3885908203125,-0.008664860390126705,-0.6777126789093018,-0.09135441482067108
1790963461408670700,7.398670654296875,-0.004135622642934322,-0.6453025937080383,-0.09437470883131027
1790963461418750700,7.408750732421875,-0.0006117281154729426,-0.6211596727371216,-0.07039932906627655
1790963461428831000,7.4188310546875,-0.0001752359967213124,-0.5932691693305969,-0.061770424246788025
1790963461438910700,7.42891064453125,0.006186256650835276,-0.5573652386665344,-0.07504947483539581
1790963461448990700,7.43899072265625,-0.000075101139373146,-0.5017637610435486,-0.05422675237059593
1790963461459070700,7.44907080078125,0.02484995685517788,-0.4469543397426605,-0.054792143404483795
1790963461469150700,7.459150634765625,0.03255554661154747,-0.38351011276245117,-0.05704544112086296
1790963461479230700,7.469230712890625,0.02743668481707573,-0.33903664350509644,-0.03879453241825104
1790963461489310700,7.479310791015625,0.03671939671039581,-0.30529865622520447,-0.03140426054596901
1790963461499390700,7.489390625,0.03069186583161354,-0.2723199427127838,-0.04066247493028641
1790963461509470700,7.499470703125,0.022938339039683342,-0.23484526574611664,-0.03599848225712776
1790963461519550700,7.50955078125,0.03657931461930275,-0.20381997525691986,-0.027046797797083855
1790963461529630700,7.519630615234375,0.04749508202075958,-0.1539860963821411,-0.03127562999725342
1790963461539710700,7.529710693359375,0.06278322637081146,-0.11677402257919312,-0.02426006644964218
1790963461549791000,7.539791015625,0.05264270305633545,-0.07365024834871292,-0.02875601500272751
1790963461559870700,7.54987060546875,0.09269318729639053,-0.0258137546479702,-0.009416405111551285
1790963461569950700,7.55995068359375,0.08089005202054977,0.030489731580018997,0.010998588986694813
1790963461580031700,7.57003173828125,0.0870446190237999,0.06760887056589127,0.01654675230383873
1790963461590111700,7.58011181640625,0.08607230335474014,0.10228829085826874,-0.004142014309763908
1790963461600191700,7.590191650390625,0.07847855985164642,0.1229698657989502,-0.0057561565190553665
1790963461610271700,7.600271728515625,0.05403846874833107,0.1273084133863449,0.026017218828201294
1790963461620351700,7.610351806640625,0.055932242423295975,0.14211559295654297,0.027568776160478592
1790963461630431700,7.620431640625,0.058506451547145844,0.14386209845542908,-0.007221161387860775
1790963461640511700,7.63051171875,0.041367944329977036,0.14530234038829803,-0.0030711572617292404
1790963461650591700,7.640591796875,0.056654226034879684,0.1375112533569336,0.0041095237247645855
1790963461660671700,7.650671630859375,0.03498062118887901,0.14535772800445557,0.02509869448840618
1790963461670751700,7.660751708984375,0.0319608636200428,0.16411490738391876,0.021441375836730003
1790963461680831700,7.670831787109375,0.03813353553414345,0.1915220320224762,-0.007078415714204311
1790963461690911700,7.680911865234375,0.047024767845869064,0.20287029445171356,-0.0025097629986703396
1790963461700991700,7.69099169921875,0.04490435868501663,0.2006862312555313,0.027352795004844666
1790963461711071700,7.70107177734375,0.04492699354887009,0.19449837505817413,0.03960999473929405
1790963461721151700,7.71115185546875,0.03664270043373108,0.20554916560649872,0.016209863126277924
1790963461731231700,7.721231689453125,0.03479420021176338,0.2087116688489914,0.004012584686279297
1790963461741311700,7.731311767578125,0.03169481083750725,0.20273686945438385,0.008112254552543163
1790963461751391700,7.741391845703125,0.041725341230630875,0.18804873526096344,0.01739603467285633
1790963461761471700,7.7514716796875,0.03232438489794731,0.1664435714483261,0.02551468089222908
1790963461771551700,7.7615517578125,0.032167255878448486,0.15456907451152802,0.015334747731685638
1790963461781631700,7.7716318359375,0.035468779504299164,0.13123977184295654,0.0023427826818078756
1790963461791711700,7.781711669921875,0.015052985399961472,0.13117799162864685,0.02996056154370308
1790963461801791700,7.791791748046875,0.008007858879864216,0.09593718498945236,0.025587385520339012
1790963461811872000,7.8018720703125,0.01629455015063286,0.12338797748088837,0.005023787263780832
1790963461821952000,7.811951904296875,0.026802320033311844,0.10893500596284866,-0.03646639734506607
1790963461832033300,7.822033203125,0.008673649281263351,0.10307898372411728,0.01726101152598858
1790963461842113000,7.832113037109375,0.0423399992287159,0.06078904867172241,0.04009069502353668
1790963461852193000,7.842193115234375,0.011115235276520252,0.016806676983833313,0.028773324564099312
1790963461862273000,7.85227294921875,0.01727725751698017,0.0012253203894942999,-0.008294148370623589
1790963461872353000,7.86235302734375,-0.008801214396953583,-0.06652576476335526,-0.007741276640444994
1790963461882433000,7.87243310546875,0.017832793295383453,-0.0905085951089859,0.004508199170231819
1790963461892513000,7.882512939453125,0.012402607128024101,-0.14180587232112885,-0.0511646494269371
1790963461902593000,7.892593017578125,-0.017298828810453415,-0.14509007334709167,-0.025839319452643394
1790963461912673000,7.902673095703125,-0.002406165935099125,-0.179583340883255,-0.027003122493624687
1790963461922753000,7.9127529296875,-0.033003490418195724,-0.19257929921150208,0.0005667206714861095
1790963461932833000,7.9228330078125,-0.007265902124345303,-0.22128205001354218,-0.01823519729077816
1790963461942913000,7.9329130859375,-0.02641935646533966,-0.25046178698539734,-0.047152597457170486
1790963461952993300,7.9429931640625,-0.01714782789349556,-0.2945541441440582,-0.049922287464141846
1790963461963073000,7.953072998046875,-0.02208213321864605,-0.3278995752334595,-0.01158901210874319
1790963461973153000,7.963153076171875,-0.006104231346398592,-0.3644067347049713,-0.02624518610537052
1790963461983233000,7.97323291015625,-0.009320264682173729,-0.3815159201622009,-0.06198667362332344
1790963461993313000,7.98331298828125,-0.002820287598297,-0.40395253896713257,-0.07388833910226822
1790963462003393000,7.99339306640625,-0.006068012677133083,-0.4212076961994171,-0.05368027091026306
1790963462013471200,8.00347119140625,-0.011426292359828949,-0.44373828172683716,-0.023994015529751778
1790963462023551000,8.013551025390624,-0.023243270814418793,-0.4498435854911804,-0.002447977662086487
1790963462033631000,8.023630859375,-0.030671626329421997,-0.4403981566429138,-0.0588366836309433
1790963462043711000,8.0337109375,-0.00983372237533331,-0.42451027035713196,-0.07639597356319427
1790963462053791000,8.043791015625,-0.0002532666258048266,-0.42599737644195557,-0.05447043105959892
1790963462063871200,8.053871337890625,0.006443518213927746,-0.4384862780570984,-0.02743029221892357
1790963462073952000,8.063951904296875,0.0038719698786735535,-0.4593295156955719,-0.029146699234843254
1790963462084032000,8.074031982421875,-0.008500277064740658,-0.47769173979759216,-0.04370753467082977
1790963462094112300,8.0841123046875,-0.007418768014758825,-0.4901063144207001,-0.049006957560777664
1790963462104192000,8.09419189453125,-0.011902998201549053,-0.48717471957206726,-0.056531719863414764
1790963462114272000,8.10427197265625,-0.01449931412935257,-0.4834774434566498,-0.03647944703698158
1790963462124352000,8.11435205078125,-0.0011595403775572777,-0.4681546986103058,-0.02792484126985073
1790963462134432000,8.124431884765626,0.00020373181905597448,-0.44507014751434326,-0.03080371953547001
1790963462144512000,8.134511962890626,-0.007949269376695156,-0.4122738540172577,-0.03307139873504639
1790963462154592000,8.144592041015626,0.0014365090755745769,-0.3800802230834961,-0.028712870553135872
1790963462164672300,8.15467236328125,0.020447218790650368,-0.3370800316333771,-0.025533322244882584
1790963462174752000,8.164751953125,0.019099125638604164,-0.32117989659309387,-0.03135312721133232
1790963462184832000,8.17483203125,-0.0016759273130446672,-0.30045703053474426,-0.014199708588421345
1790963462194912000,8.184912109375,0.02316896803677082,-0.27381157875061035,-0.019397133961319923
1790963462204992000,8.194991943359375,0.02250291220843792,-0.2252405732870102,-0.024083765223622322
1790963462215072300,8.205072265625,0.04158099740743637,-0.18039347231388092,-0.009040899574756622
1790963462225152000,8.215152099609375,0.0638895034790039,-0.12856702506542206,-0.008949286304414272
1790963462235232000,8.22523193359375,0.06565278023481369,-0.08743104338645935,-0.014458567835390568
1790963462245312000,8.23531201171875,0.07131146639585495,-0.042995136231184006,-0.0054395063780248165
1790963462255392000,8.24539208984375,0.07306275516748428,0.014118216000497341,0.002730805426836014
1790963462265472000,8.255471923828125,0.0685012936592102,0.07219909876585007,-0.00452684098854661
1790963462275552000,8.265552001953125,0.08392445743083954,0.10520924627780914,-0.0111621068790555
1790963462285632300,8.27563232421875,0.09880220890045166,0.1204553097486496,0.0005765743553638458
1790963462295713000,8.285713134765626,0.09260769933462143,0.09717102348804474,0.018644258379936218
1790963462305793000,8.29579296875,0.06082313507795334,0.06483571976423264,0.03369271755218506
1790963462315873000,8.305873046875,0.08711093664169312,0.08390608429908752,-0.006843524985015392
1790963462325953000,8.315953125,0.06342744082212448,0.126723051071167,-0.009946906939148903
1790963462336033000,8.326032958984374,0.07839147746562958,0.14699263870716095,0.0032583775464445353
1790963462346113000,8.336113037109374,0.0733565017580986,0.15000493824481964,0.0006572681595571339
1790963462356193000,8.346193115234374,0.06890556216239929,0.13152047991752625,0.022471221163868904
1790963462366273000,8.35627294921875,0.07781384140253067,0.106836698949337,0.030789604410529137
1790963462376353000,8.36635302734375,0.07241187989711761,0.08602702617645264,0.01948634907603264
1790963462386433000,8.37643310546875,0.08142561465501785,0.04946368932723999,-0.020329240709543228
1790963462396513000,8.386512939453125,0.08939086645841599,-0.0075631109066307545,-0.015720639377832413
1790963462406593000,8.396593017578125,0.07145553827285767,-0.08564965426921844,0.01865224726498127
1790963462416673000,8.406673095703125,0.0506003275513649,-0.11335079371929169,0.025255555287003517
1790963462426753000,8.4167529296875,0.04266969859600067,-0.09845360368490219,0.0024399880785495043
1790963462436833000,8.4268330078125,0.03533961623907089,-0.054919708520174026,-0.01666686125099659
1790963462446913000,8.4369130859375,0.03250574320554733,-0.03212571144104004,-0.015562980435788631
1790963462456993000,8.446992919921875,0.01673503778874874,-0.05224376171827316,0.006398244295269251
1790963462467073000,8.457072998046876,0.024451812729239464,-0.08958394825458527,0.009135973639786243
1790963462477153000,8.467153076171876,0.032701220363378525,-0.10757838934659958,-0.0024546354543417692
1790963462487233000,8.47723291015625,0.036607012152671814,-0.1228012889623642,-0.01715741492807865
1790963462497313000,8.48731298828125,0.04776246100664139,-0.12175013870000839,-0.021649101749062538
1790963462507393000,8.49739306640625,0.049258094280958176,-0.1287159025669098,-0.02388322912156582
1790963462517474000,8.50747412109375,0.04562287777662277,-0.13088904321193695,-0.010236391797661781
1790963462527554000,8.517553955078125,0.05047116428613663,-0.13414634764194489,0.01543461624532938
1790963462537634000,8.527634033203125,0.039136216044425964,-0.11749839782714844,0.011635350994765759
1790963462547714000,8.537714111328125,0.03290974721312523,-0.08796980232000351,-0.013199425302445889
1790963462557794000,8.5477939453125,0.027964523062109947,-0.05693332478404045,-0.02556474879384041
1790963462567874000,8.5578740234375,0.02678500860929489,-0.0505308173596859,-0.024221982806921005
1790963462577954000,8.5679541015625,0.04638827219605446,-0.06509537994861603,-0.0070794811472296715
1790963462588034000,8.578033935546875,0.05276494473218918,-0.07854301482439041,0.0031406658235937357
1790963462598114000,8.588114013671875,0.049373939633369446,-0.07639117538928986,0.008448345586657524
1790963462608194000,8.598194091796875,0.041250232607126236,-0.06575850397348404,-0.003683418035507202
1790963462618274000,8.608274169921875,0.028055336326360703,-0.04481620714068413,-0.017724668607115746
1790963462628354000,8.61835400390625,0.028256937861442566,-0.04071760177612305,-0.017671937122941017
1790963462638434000,8.62843408203125,0.02930995263159275,-0.041605766862630844,-0.013819409534335136
1790963462648514000,8.63851416015625,0.03165273368358612,-0.03256459906697273,-0.004668254870921373
1790963462658594000,8.648593994140626,0.03334277495741844,-0.004258926957845688,0.017609886825084686
1790963462668674000,8.658674072265624,0.041298702359199524,0.02942872792482376,0.019537482410669327
1790963462678754000,8.668754150390624,0.037037644535303116,0.06276164948940277,0.0007451524725183845
1790963462688834000,8.678833984375,0.021675733849406242,0.0737338736653328,-0.0031015174463391304
1790963462698914000,8.6889140625,0.01883494108915329,0.07538237422704697,0.005872802808880806
1790963462708994000,8.698994140625,0.019274894148111343,0.06351159512996674,-0.0011166634503751993
1790963462719075000,8.709074951171875,0.01792999729514122,0.04200364276766777,-0.004274906124919653
1790963462729155000,8.719155029296875,0.0426689013838768,0.023739151656627655,-0.05314657464623451
1790963462739234800,8.72923486328125,0.037036582827568054,0.03394278511404991,-0.011257181875407696
1790963462749315000,8.739315185546875,0.03242052346467972,0.04658827558159828,0.09805812686681747
1790963462759395000,8.74939501953125,0.04671211168169975,0.05877703055739403,0.06887973099946976
1790963462769475000,8.75947509765625,0.006432865746319294,0.1028696596622467,-0.07302866876125336
1790963462779555000,8.76955517578125,-0.004519117996096611,0.09975508600473404,-0.11002903431653976
1790963462789634800,8.779634765625,-0.023246733471751213,0.09273765981197357,0.05337613821029663
1790963462799715000,8.789715087890626,0.003230414353311062,0.0914742574095726,0.11310684680938721
1790963462809794300,8.799794189453126,0.05975547432899475,0.09121513366699219,0.05232871696352959
1790963462819874000,8.8098740234375,0.06442559510469437,0.039561256766319275,-0.02401718497276306
1790963462829954000,8.8199541015625,0.055037420243024826,-0.03206738829612732,-0.03755083680152893
1790963462840034000,8.830033935546876,0.043352268636226654,-0.07536718994379044,0.027639616280794144
1790963462850114000,8.840114013671876,0.03080318681895733,-0.1141904890537262,0.019220566377043724
1790963462860194300,8.8501943359375,0.00987127237021923,-0.12772387266159058,0.006601709872484207
1790963462870274000,8.860274169921874,-0.009949303232133389,-0.17435316741466522,-0.013992514461278915
1790963462880354000,8.87035400390625,-0.04776272922754288,-0.1841117888689041,-0.0008474178612232208
1790963462890434000,8.88043408203125,-0.03863607719540596,-0.19985239207744598,-0.04674167186021805
1790963462900514000,8.89051416015625,-0.053408097475767136,-0.18677814304828644,-0.007801730185747147
1790963462910594300,8.90059423828125,-0.01973135955631733,-0.1449902057647705,0.0024474449455738068
1790963462920674000,8.910674072265625,0.012231365777552128,-0.14843633770942688,-0.01381008792668581
1790963462930755000,8.920755126953125,-0.004274639766663313,-0.15527960658073425,-0.03074299916625023
1790963462940835300,8.93083544921875,0.009852098301053047,-0.15775367617607117,-0.017909757792949677
1790963462950915000,8.9409150390625,-0.008418251760303974,-0.1340520828962326,-0.004876514431089163
1790963462960995000,8.9509951171875,0.0021315941121429205,-0.11276596039533615,-0.01022707112133503
1790963462971075000,8.961074951171875,-0.004166249185800552,-0.1016472652554512,-0.021885856986045837
1790963462981155000,8.971155029296876,-0.024632908403873444,-0.1049455925822258,-0.008313589729368687
1790963462991235000,8.981235107421876,-0.01587856560945511,-0.10003338754177094,0.04536561667919159
1790963463001315000,8.991315185546876,-0.013331251218914986,-0.0850701555609703,0.0685119479894638
1790963463011395300,9.001395263671874,-0.009559948928654194,-0.06456940621137619,0.022233134135603905
1790963463021475000,9.01147509765625,-0.0025188177824020386,-0.05159208923578262,-0.044449225068092346
1790963463031555000,9.02155517578125,-0.028853751718997955,-0.0383969247341156,-0.05916585028171539
1790963463041635000,9.031635009765624,-0.03695082664489746,-0.043894488364458084,0.0002247707889182493
1790963463051715000,9.041715087890625,-0.042758114635944366,-0.04968845844268799,0.045826077461242676
1790963463061795300,9.05179541015625,-0.0610889196395874,-0.059841230511665344,0.017495635896921158
1790963463071875000,9.061875,-0.06537847220897675,-0.05667579546570778,-0.02701510675251484
1790963463081955000,9.071955078125,-0.06728316843509674,-0.05535486713051796,-0.01888740435242653
1790963463092035000,9.08203515625,-0.08087434619665146,-0.06121249124407768,0.01835557073354721
1790963463102115000,9.092114990234375,-0.07019773125648499,-0.06599179655313492,0.016690297052264214
1790963463112196000,9.102196044921875,-0.07563111186027527,-0.06700167059898376,-0.013882526196539402
1790963463122276000,9.112276123046875,-0.09394007921218872,-0.0815742239356041,-0.023868314921855927
1790963463132356000,9.122356201171876,-0.09597286581993103,-0.08925531059503555,-0.0030980552546679974
1790963463142436000,9.13243603515625,-0.10092634707689285,-0.10330908000469208,0.02226695604622364
1790963463152516000,9.14251611328125,-0.11489569395780563,-0.1214555874466896,0.02610830031335354
1790963463162596400,9.152596435546876,-0.10937309265136719,-0.13753069937229156,-0.013552560470998287
1790963463172676000,9.162676025390626,-0.12027528136968613,-0.14246074855327606,-0.03075791336596012
1790963463182756000,9.172756103515624,-0.12712226808071136,-0.15078870952129364,-0.011106979101896286
1790963463192836000,9.182836181640624,-0.1296008676290512,-0.15090295672416687,-0.010998322628438473
1790963463202916000,9.192916015625,-0.1317247450351715,-0.15317757427692413,-0.02490588277578354
1790963463212996000,9.20299609375,-0.131352961063385,-0.1608397513628006,0.001463939668610692
1790963463223076000,9.213076171875,-0.1374681144952774,-0.17546769976615906,0.013147227466106415
1790963463233156000,9.223156005859375,-0.14200028777122498,-0.18586760759353638,0.010452108457684517
1790963463243236000,9.233236083984375,-0.1425883024930954,-0.18956327438354492,0.010325874201953411
1790963463253316000,9.243316162109375,-0.14559714496135712,-0.18733526766300201,-0.02642122097313404
1790963463263396000,9.25339599609375,-0.1555938571691513,-0.18709692358970642,-0.017616543918848038
1790963463273476000,9.26347607421875,-0.14547304809093475,-0.19342166185379028,-0.020962273702025414
1790963463283556000,9.27355615234375,-0.1447015255689621,-0.20510707795619965,-0.03377527371048927
1790963463293636000,9.283635986328125,-0.1473788022994995,-0.2265300750732422,-0.015734754502773285
1790963463303716000,9.293716064453125,-0.13521668314933777,-0.24376845359802246,-0.004706338047981262
1790963463313797000,9.303797119140626,-0.1423824429512024,-0.24555809795856476,0.014178669080138206
1790963463323877000,9.313877197265626,-0.13529470562934875,-0.2464180290699005,0.016680710017681122
1790963463333957000,9.32395703125,-0.135274738073349,-0.24256257712841034,0.025919748470187187
1790963463344037000,9.334037109375,-0.13542546331882477,-0.24597914516925812,0.02479322999715805
1790963463354117000,9.3441171875,-0.1284266859292984,-0.243577778339386,-0.04554564878344536
1790963463364197000,9.354197021484374,-0.14650075137615204,-0.26936542987823486,-0.020955348387360573
1790963463374277000,9.364277099609374,-0.12405270338058472,-0.2759990990161896,-0.026501115411520004
1790963463384357000,9.374357177734375,-0.13094523549079895,-0.2801051437854767,-0.02089010179042816
1790963463394437000,9.38443701171875,-0.14318539202213287,-0.28714069724082947,0.029218604788184166
1790963463404517000,9.39451708984375,-0.12485804408788681,-0.2897452712059021,0.008702411316335201
1790963463414597000,9.40459716796875,-0.16693119704723358,-0.2844093441963196,-0.015262043103575706
1790963463424677000,9.414677001953125,-0.16811417043209076,-0.2865856885910034,-0.04107526317238808
1790963463434757000,9.424757080078125,-0.162565216422081,-0.2879939675331116,-0.06404955685138702
1790963463444837000,9.434837158203125,-0.17281411588191986,-0.28318163752555847,-0.035597410053014755
1790963463454917000,9.444917236328125,-0.1537773162126541,-0.2846969664096832,0.0033779535442590714
1790963463464997000,9.4549970703125,-0.1531677097082138,-0.2888754904270172,0.03755350038409233
1790963463475077000,9.4650771484375,-0.14036883413791656,-0.2914204001426697,0.033970218151807785
1790963463485157000,9.4751572265625,-0.12010829895734787,-0.2837350368499756,-0.01871456578373909
1790963463495237000,9.485237060546876,-0.14115099608898163,-0.2689574360847473,-0.08234254270792007
1790963463505318100,9.495318115234374,-0.15156902372837067,-0.24517220258712769,-0.07984849065542221
1790963463515398100,9.505398193359374,-0.1368768960237503,-0.21389524638652802,0.023726901039481163
1790963463525478100,9.51547802734375,-0.13238200545310974,-0.18468062579631805,0.04940510168671608
1790963463535558100,9.52555810546875,-0.13221076130867004,-0.1571483463048935,0.0037377465050667524
1790963463545638100,9.53563818359375,-0.09450306743383408,-0.12880751490592957,-0.04965570196509361
1790963463555718100,9.54571826171875,-0.09199463576078415,-0.09576807171106339,-0.09525781124830246
1790963463565798100,9.555798095703125,-0.09682135283946991,-0.07517437636852264,-0.01721413992345333
1790963463575878100,9.565878173828125,-0.08123040944337845,-0.03425224497914314,0.05408427491784096
1790963463585958100,9.575958251953125,-0.09248332679271698,0.015621037222445011,0.061222076416015625
1790963463596038100,9.5860380859375,-0.09592386335134506,0.05517510324716568,0.042808450758457184
1790963463606118100,9.5961181640625,-0.12845836579799652,0.11331777274608612,-0.04579651728272438
1790963463616198100,9.6061982421875,-0.14853301644325256,0.17090490460395813,-0.06829144060611725
1790963463626278100,9.616278076171875,-0.12965147197246552,0.18882690370082855,-0.01920511946082115
1790963463636358100,9.626358154296875,-0.12958276271820068,0.21269522607326508,0.018562233075499535
1790963463646438100,9.636438232421876,-0.09596328437328339,0.23677073419094086,0.04880961775779724
1790963463656518100,9.64651806640625,-0.09661548584699631,0.27023735642433167,-0.03621659427881241
1790963463666598100,9.65659814453125,-0.100550577044487,0.3043260872364044,-0.05963057279586792
1790963463676678100,9.66667822265625,-0.11044661700725555,0.31551000475883484,0.048101481050252914
1790963463686759200,9.67675927734375,-0.10196178406476974,0.3333393633365631,0.13581562042236328
1790963463696839200,9.686839111328124,-0.08518653362989426,0.31570497155189514,0.10592430084943771
1790963463706919200,9.696919189453125,-0.06923579424619675,0.27421265840530396,-0.026153041049838066
1790963463716999200,9.706999267578125,-0.042224686592817307,0.2099580317735672,-0.09760405123233795
1790963463727079200,9.7170791015625,-0.041309889405965805,0.12173788249492645,-0.11118883639574051
1790963463737159000,9.727158935546875,-0.05690509453415871,0.04440954327583313,-0.01636219583451748
1790963463747239200,9.7372392578125,-0.0807046964764595,-0.0660296157002449,0.13038517534732819
1790963463757319200,9.747319091796875,-0.07540314644575119,-0.19266079366207123,0.12603355944156647
1790963463767399200,9.757399169921875,-0.06971383094787598,-0.30597802996635437,0.008959938772022724
1790963463777479200,9.767479248046875,-0.14931811392307281,-0.40257060527801514,-0.09910101443529129
1790963463787559000,9.777558837890625,-0.1678001880645752,-0.48273470997810364,-0.1355530321598053
1790963463797639200,9.78763916015625,-0.10971717536449432,-0.5217697024345398,-0.0388890765607357
1790963463807719200,9.79771923828125,-0.06580884009599686,-0.5783362984657288,0.04993000999093056
1790963463817799700,9.807799560546876,-0.04770706966519356,-0.6497713327407837,-0.00336197461001575
1790963463827880000,9.8178798828125,-0.026398584246635437,-0.7082290649414062,-0.12858806550502777
1790963463837959700,9.827959716796874,-0.046534214168787,-0.7584914565086365,-0.16279983520507812
1790963463848040000,9.8380400390625,-0.05841590464115143,-0.7458446025848389,-0.05295616015791893
1790963463858120000,9.848119873046874,-0.0464111752808094,-0.6829769611358643,0.11318700760602951
1790963463868200700,9.85820068359375,-0.018085259944200516,-0.5802982449531555,0.16493836045265198
1790963463878281000,9.868281005859375,-0.01613103225827217,-0.4416778087615967,0.12106410413980484
1790963463888361000,9.87836083984375,-0.00008468852320220321,-0.3489809036254883,0.00021971078240312636
1790963463898441000,9.88844091796875,0.10992783308029175,-0.23459626734256744,-0.11995969712734222
1790963463908521000,9.89852099609375,0.12688285112380981,-0.12460850924253464,-0.1095733642578125
1790963463918600700,9.9086005859375,0.11598652601242065,-0.01107448898255825,-0.039380960166454315
1790963463928681000,9.918680908203125,0.11410393565893173,0.10907348990440369,0.06065535917878151
1790963463938760700,9.9287607421875,0.12246706336736679,0.20989730954170227,0.10804710537195206
1790963463948841000,9.938841064453126,0.14997512102127075,0.3157004415988922,0.03399711474776268
1790963463958921000,9.9489208984375,0.12359277904033661,0.4085283875465393,-0.0885612890124321
1790963463969000700,9.959000732421876,0.1280120313167572,0.5029427409172058,-0.10876083374023438
1790963463979081000,9.9690810546875,0.15903572738170624,0.615368664264679,-0.028293423354625702
1790963463989160700,9.97916064453125,0.1930253803730011,0.6867190003395081,0.14443999528884888
1790963463999241000,9.989240966796874,0.17799024283885956,0.7466545104980469,0.15668947994709015
1790963464009321000,9.999321044921874,0.18388621509075165,0.8607578873634338,-0.004801146686077118
1790963464019401000,10.00940087890625,0.19778631627559662,0.9224793314933777,-0.04754754528403282
1790963464029481000,10.01948095703125,0.20095467567443848,0.9819162487983704,0.006846454460173845
1790963464039560700,10.029560791015625,0.25348207354545593,1.034998893737793,0.07327953726053238
1790963464049641700,10.039641845703125,0.2515941560268402,1.046423077583313,0.118622787296772
1790963464059722000,10.049721923828125,0.25168389081954956,1.0744032859802246,0.08105757087469101
1790963464069801700,10.0598017578125,0.2312079221010208,1.057403326034546,-0.01709696091711521
1790963464079882000,10.069882080078125,0.2039339542388916,1.0353611707687378,0.04832998290657997
1790963464089961700,10.079961669921875,0.22103118896484375,0.9888231754302979,0.11708986759185791
1790963464100042000,10.0900419921875,0.2393481433391571,0.9599584937095642,0.07894089072942734
1790963464110122000,10.1001220703125,0.20778942108154297,0.9188110828399658,0.1038648784160614
1790963464120201700,10.11020166015625,0.20580749213695526,0.902215301990509,0.11653273552656174
1790963464130282000,10.120281982421876,0.2580967843532562,0.8636428713798523,0.06452519446611404
1790963464140361700,10.13036181640625,0.21334370970726013,0.7823483347892761,0.069095179438591
1790963464150442000,10.14044189453125,0.17843711376190186,0.6775563955307007,0.07120706886053085
1790963464160522000,10.15052197265625,0.16514208912849426,0.5209861993789673,0.10088826715946198
1790963464170601700,10.160601806640624,0.1280975192785263,0.368358314037323,0.10828626155853271
1790963464180682000,10.170681884765624,0.12371155619621277,0.28628528118133545,0.07545827329158783
1790963464190761700,10.18076171875,0.1501237154006958,0.2355795055627823,-0.030414631590247154
1790963464200842000,10.190842041015625,0.13828010857105255,0.23831669986248016,-0.03798093646764755
1790963464210921700,10.200921630859375,0.11904276907444,0.23949141800403595,0.05169248953461647
1790963464221002800,10.211002685546875,0.09002203494310379,0.21618209779262543,0.1023428812623024
1790963464231083000,10.2210830078125,0.06604479998350143,0.17439045011997223,0.05596686154603958
1790963464241162800,10.231162841796875,0.012602344155311584,0.13394448161125183,-0.0068328725174069405
1790963464251242800,10.24124267578125,-0.05883455276489258,0.038781482726335526,-0.010130397975444794
1790963464261323000,10.251322998046875,-0.05982764810323715,-0.019783025607466698,-0.01788019761443138
1790963464271402800,10.26140283203125,-0.05674077570438385,-0.03754790872335434,-0.037094905972480774
1790963464281483000,10.27148291015625,-0.05762920901179314,0.012490757741034031,-0.011060373857617378
1790963464291562800,10.281562744140626,-0.039035551249980927,0.07186593115329742,0.0020269318483769894
1790963464301643000,10.29164306640625,-0.04056207463145256,0.11727762222290039,-0.12623277306556702
1790963464311723000,10.301722900390626,-0.0759112760424614,0.16591067612171173,-0.09638379514217377
1790963464321802800,10.311802734375,-0.11912372708320618,0.1688302904367447,0.015726499259471893
1790963464331883000,10.321883056640624,-0.11193052679300308,0.14472097158432007,0.07827217131853104
1790963464341962800,10.331962646484374,-0.11959563940763474,0.12934361398220062,0.12779684364795685
1790963464352043000,10.34204296875,-0.1370859444141388,0.07615016400814056,-0.030913440510630608
1790963464362122800,10.352122802734375,-0.14574788510799408,0.03742353990674019,-0.15956303477287292
1790963464372202800,10.36220263671875,-0.20629990100860596,-0.04309873282909393,-0.1288410723209381
1790963464382283000,10.372282958984375,-0.208837628364563,-0.10100704431533813,0.024875521659851074
1790963464392362800,10.38236279296875,-0.13899889588356018,-0.11697535216808319,-0.03617584705352783
1790963464402443800,10.39244384765625,-0.15885277092456818,-0.14820358157157898,0.0002926813904196024
1790963464412524000,10.40252392578125,-0.11384587734937668,-0.17561602592468262,0.020207267254590988
1790963464422603800,10.412603759765625,-0.07540447264909744,-0.15307264029979706,0.021944446489214897
1790963464432684000,10.42268408203125,-0.12485484778881073,-0.1801047921180725,-0.18547451496124268
1790963464442763800,10.432763671875,-0.1750170886516571,-0.23490571975708008,-0.06467273831367493
1790963464452844000,10.442843994140626,-0.13584651052951813,-0.2767394483089447,0.17398031055927277
1790963464462923800,10.452923828125,-0.041141577064991,-0.2762369215488434,0.29344305396080017
1790963464473003800,10.463003662109376,-0.018256502225995064,-0.27251967787742615,0.07013115286827087
1790963464483084000,10.473083984375,-0.04942534118890762,-0.1836196333169937,-0.39478567242622375
1790963464493163800,10.483163818359374,-0.13182488083839417,-0.050701793283224106,-0.517195463180542
1790963464503244000,10.493244140625,-0.18122412264347076,-0.013687582686543465,-0.30472394824028015
1790963464513323800,10.50332373046875,-0.17060981690883636,0.031376030296087265,0.14621660113334656
1790963464523403800,10.51340380859375,-0.12285295128822327,-0.01341913640499115,0.4322241246700287
1790963464533484000,10.523484130859375,-0.06594786047935486,-0.05066610500216484,0.45422661304473877
1790963464543563800,10.533563720703125,-0.06205058842897415,-0.08972908556461334,0.25235289335250854
1790963464553644000,10.54364404296875,-0.133856862783432,-0.10334982722997665,-0.057921089231967926
1790963464563723800,10.553723876953125,-0.20090514421463013,-0.12397121638059616,-0.20723441243171692
1790963464573804800,10.5638046875,-0.17880569398403168,-0.1762610524892807,-0.1033458262681961
1790963464583885000,10.573885009765625,-0.14152038097381592,-0.21000729501247406,0.041359156370162964
1790963464593964800,10.58396484375,-0.1369141787290573,-0.20320264995098114,-0.09407643228769302
1790963464604044800,10.594044921875,-0.0866059958934784,-0.1639748215675354,-0.10009277611970901
1790963464614124800,10.604124755859376,-0.08951390534639359,-0.13850274682044983,0.041779935359954834
1790963464624204800,10.614204833984376,-0.052856821566820145,-0.04087366163730621,0.17248442769050598
1790963464634285000,10.62428515625,0.042030274868011475,-0.2207302451133728,0.48013678193092346
1790963464644364800,10.63436474609375,0.08936796337366104,-0.31272196769714355,0.3626178801059723
1790963464654445000,10.644445068359374,-0.00010333064710721374,-0.2615373432636261,-0.17762671411037445
1790963464664524800,10.65452490234375,-0.20046359300613403,-0.4186185598373413,-0.2913157343864441
1790963464674604800,10.664604736328124,-0.3850664496421814,-0.5318564176559448,-0.10414690524339676
1790963464684685000,10.67468505859375,-0.3629576861858368,-0.544396698474884,-0.04109816625714302
1790963464694764800,10.684764892578125,-0.20932233333587646,-0.4377770721912384,-0.08468879014253616
1790963464704845000,10.694844970703125,-0.05438308045268059,-0.3632943332195282,-0.014984807930886745
1790963464714924800,10.7049248046875,-0.10677678138017654,-0.37678855657577515,0.12275068461894989
1790963464725004800,10.7150048828125,-0.13204804062843323,-0.41756555438041687,0.03640008717775345
1790963464735084800,10.725084716796875,-0.19184613227844238,-0.4699704349040985,-0.0876009538769722
1790963464745165800,10.735165771484375,-0.30753278732299805,-0.5696139335632324,-0.04658188298344612
1790963464755245800,10.745245849609375,-0.27840474247932434,-0.6072468161582947,-0.034385405480861664
1790963464765325800,10.755325927734376,-0.19726380705833435,-0.6320935487747192,-0.11056113243103027
1790963464775405800,10.76540576171875,-0.1452176421880722,-0.6529913544654846,-0.0393359549343586
1790963464785486000,10.775486083984376,-0.15704473853111267,-0.6720479130744934,0.016590161249041557
1790963464795565800,10.78556591796875,-0.14263464510440826,-0.68897545337677,-0.039312783628702164
1790963464805645800,10.795645751953124,-0.16833654046058655,-0.7164134979248047,0.020352410152554512
1790963464815725000,10.80572509765625,-0.1971740573644638,-0.707423746585846,0.05329065024852753
1790963464825805300,10.815805419921874,-0.19881349802017212,-0.733647346496582,-0.051181696355342865
1790963464835885000,10.825885009765624,-0.18465666472911835,-0.7479082942008972,-0.10821941494941711
1790963464845965000,10.835965087890624,-0.1697232574224472,-0.7462635636329651,-0.16269943118095398
1790963464856045000,10.846045166015625,-0.1782485693693161,-0.7795325517654419,-0.07167445123195648
1790963464866125000,10.856125,-0.1344238519668579,-0.7513339519500732,0.07870679348707199
1790963464876205300,10.866205322265625,-0.12047608196735382,-0.7178015112876892,0.014839133247733116
1790963464886285000,10.87628515625,-0.13778716325759888,-0.6864086985588074,-0.04442685469985008
1790963464896365000,10.886364990234375,-0.12431290000677109,-0.6395668983459473,-0.06756466627120972
1790963464906446300,10.8964462890625,-0.1403115689754486,-0.6046291589736938,-0.1087307408452034
1790963464916526000,10.906526123046875,-0.12089872360229492,-0.5891854763031006,-0.05963936075568199
1790963464926606000,10.916606201171875,-0.06789249926805496,-0.5690261721611023,0.03597291558980942
1790963464936686000,10.92668603515625,-0.08447147160768509,-0.5664756894111633,0.07627799361944199
1790963464946766000,10.93676611328125,-0.09281036257743835,-0.5178708434104919,0.04493844509124756
1790963464956846300,10.946846435546876,-0.052144162356853485,-0.47480008006095886,-0.04361405596137047
1790963464966926000,10.956926025390626,-0.04310033097863197,-0.42631295323371887,-0.006557501386851072
1790963464977006000,10.967006103515626,-0.04388756304979324,-0.3476541042327881,0.0057196710258722305
1790963464987086000,10.977086181640624,-0.0007174555794335902,-0.2648002505302429,-0.0765317901968956
1790963464997166000,10.987166015625,-0.006262423470616341,-0.20697927474975586,0.0030056436080485582
1790963465007246000,10.99724609375,0.004247475415468216,-0.1700417697429657,0.05987132340669632
1790963465017326000,11.007326171875,0.04547294229269028,-0.10104432702064514,-0.0020008329302072525
1790963465027406300,11.01740625,0.067067451775074,-0.06640911847352982,0.02106613665819168
1790963465037486000,11.027486083984375,0.06916043162345886,-0.03285621851682663,-0.001845038030296564
1790963465047566000,11.037566162109375,0.05753972381353378,0.0181766077876091,-0.013707290403544903
1790963465057646000,11.04764599609375,0.08977382630109787,0.06735240668058395,0.07016550749540329
1790963465067726000,11.05772607421875,0.11632075160741806,0.11308953911066055,0.04623141139745712
1790963465077807000,11.06780712890625,0.1460307091474533,0.1637902706861496,0.01979847252368927
1790963465087887000,11.07788720703125,0.1455361545085907,0.2122584581375122,-0.006427006796002388
1790963465097967000,11.087967041015625,0.17414037883281708,0.22767363488674164,0.020303674042224884
1790963465108047000,11.098047119140626,0.16166985034942627,0.2549247145652771,0.042750924825668335
1790963465118127000,11.108127197265626,0.14156724512577057,0.30316174030303955,0.0035446672700345516
1790963465128207000,11.11820703125,0.19797885417938232,0.30335667729377747,0.09935561567544937
1790963465138287000,11.128287109375,0.24648381769657135,0.31177493929862976,0.03840065374970436
1790963465148367000,11.1383671875,0.18385638296604156,0.3300330340862274,-0.006750314496457577
1790963465158447000,11.148447021484374,0.11771544814109802,0.32840263843536377,0.06977961212396622
1790963465168527000,11.158527099609374,0.16449840366840363,0.346463143825531,0.08463126420974731
1790963465178607000,11.168607177734375,0.14016295969486237,0.39052248001098633,0.06660512834787369
1790963465188687000,11.17868701171875,0.11718734353780746,0.400781512260437,0.037400104105472565
1790963465198767000,11.18876708984375,0.12736673653125763,0.38615143299102783,-0.0266563780605793
1790963465208847000,11.19884716796875,0.14459899067878723,0.38370850682258606,0.005877064075320959
1790963465218927000,11.208927001953125,0.11661689728498459,0.3899688124656677,0.047087352722883224
1790963465229007000,11.219007080078125,0.11687015742063522,0.36525759100914,0.0182274729013443
1790963465239087000,11.229087158203125,0.08637989312410355,0.357299268245697,0.029815686866641045
1790963465249168100,11.239168212890625,0.06644213944673538,0.33698174357414246,-0.00694871973246336
1790963465259248000,11.249248046875,0.12420637160539627,0.2968843877315521,0.014821290038526058
1790963465269328100,11.259328125,0.08076169341802597,0.29999470710754395,0.05473994463682175
1790963465279408000,11.269408203125,0.07855872064828873,0.294645220041275,-0.03869679570198059
1790963465289488100,11.279488037109376,0.11662860959768295,0.28275367617607117,-0.058516573160886765
1790963465299568000,11.289568115234376,0.05043547600507736,0.29179084300994873,0.0537167564034462
1790963465309648100,11.299648193359374,0.07038148492574692,0.29142093658447266,0.06604532897472382
1790963465319728000,11.30972802734375,0.08971284329891205,0.2968135476112366,0.01709509640932083
1790963465329808100,11.31980810546875,0.021889053285121918,0.2894163727760315,-0.03579741343855858
1790963465339888000,11.32988818359375,0.03941398486495018,0.26626524329185486,-0.03897909075021744
1790963465349968100,11.339968017578125,0.04554058611392975,0.27002960443496704,0.01906477101147175
1790963465360048000,11.350048095703125,0.051591288298368454,0.26768311858177185,0.12504100799560547
1790963465370128100,11.360128173828125,0.040709078311920166,0.2661898732185364,0.07740238308906555
1790963465380208000,11.3702080078125,0.06317310780286789,0.29044273495674133,-0.03226020187139511
1790963465390288100,11.3802880859375,0.03394411876797676,0.27955362200737,-0.030435936525464058
1790963465400368000,11.3903681640625,0.006085323169827461,0.26722851395606995,-0.057137057185173035
1790963465410449200,11.40044921875,0.052964948117733,0.25227537751197815,0.0062728095799684525
1790963465420529200,11.410529052734375,0.01564660482108593,0.21950092911720276,0.06561656296253204
1790963465430609200,11.420609130859376,0.013117932714521885,0.21563668549060822,-0.007130081299692392
1790963465440689200,11.430689208984376,0.023785224184393883,0.1931939572095871,0.01979714073240757
1790963465450769200,11.44076904296875,-0.014798919670283794,0.15695473551750183,0.07643724977970123
1790963465460849200,11.45084912109375,0.006383596919476986,0.1469108909368515,-0.011962386779487133
1790963465470929200,11.46092919921875,-0.017152089625597,0.1349000334739685,-0.05578496679663658
1790963465481009000,11.4710087890625,-0.046244192868471146,0.11411858350038528,-0.03507782518863678
1790963465491089200,11.481089111328124,-0.014823953621089458,0.09263405948877335,0.014782674610614777
1790963465501169200,11.491169189453124,-0.04242974892258644,0.06535077840089798,0.10330082476139069
1790963465511249200,11.501249267578125,-0.028065189719200134,0.04290139302611351,0.07765990495681763
1790963465521329200,11.5113291015625,-0.020780911669135094,0.008297877386212349,-0.11989790946245193
1790963465531409200,11.5214091796875,-0.05300862342119217,-0.0399724505841732,-0.07483722269535065
1790963465541489200,11.5314892578125,-0.09473370015621185,-0.10617650300264359,0.0623515248298645
1790963465551569200,11.541569091796875,-0.07116632163524628,-0.13470667600631714,0.03313931077718735
1790963465561649200,11.551649169921875,-0.08328770101070404,-0.16510319709777832,-0.05043867230415344
1790963465571730200,11.561730224609375,-0.08613967895507812,-0.20250463485717773,-0.10021422058343887
1790963465581810200,11.57181005859375,-0.10791900753974915,-0.2320670634508133,-0.02309972606599331
1790963465591890200,11.58189013671875,-0.1268727332353592,-0.26841840147972107,0.028075043112039566
1790963465601970200,11.59197021484375,-0.08454311639070511,-0.3095517158508301,0.026103505864739418
1790963465612050200,11.60205029296875,-0.11435640603303909,-0.31327828764915466,0.0009518137667328119
1790963465622130200,11.612130126953126,-0.13750086724758148,-0.3385005593299866,-0.08372845500707626
1790963465632210000,11.6222099609375,-0.11346664279699326,-0.3472817838191986,-0.10533973574638367
1790963465642290200,11.632290283203124,-0.1667029708623886,-0.36482563614845276,-0.10021688044071198
1790963465652370200,11.6423701171875,-0.14619795978069305,-0.39272570610046387,-0.029528863728046417
1790963465662450200,11.6524501953125,-0.1102154552936554,-0.40386757254600525,0.05000777170062065
1790963465672530200,11.6625302734375,-0.13998612761497498,-0.4145878553390503,-0.038708511739969254
1790963465682610000,11.67260986328125,-0.11832185089588165,-0.43750089406967163,-0.10814378410577774
1790963465692690200,11.682690185546875,-0.10784337669610977,-0.4647029638290405,-0.05338865518569946
1790963465702770200,11.692770263671875,-0.1071309819817543,-0.4852234125137329,0.03855085372924805
1790963465712850200,11.70285009765625,-0.10874352604150772,-0.49250850081443787,-0.005623797420412302
1790963465722930200,11.71293017578125,-0.0932239517569542,-0.501951277256012,-0.03353692218661308
1790963465733011000,11.723010986328125,-0.12920325994491577,-0.5164364576339722,-0.02888011746108532
1790963465743091200,11.73309130859375,-0.10343904048204422,-0.5233042240142822,-0.0327981598675251
1790963465753171200,11.743171142578126,-0.10969427227973938,-0.5171808004379272,-0.05493062734603882
1790963465763251000,11.7532509765625,-0.08245732635259628,-0.5458968877792358,-0.054255515336990356
1790963465773331200,11.763331298828126,-0.08967795222997665,-0.5622279047966003,-0.02255590818822384
1790963465783411000,11.773410888671876,-0.11191242188215256,-0.5551527142524719,-0.01691320352256298
1790963465793491200,11.7834912109375,-0.07668359577655792,-0.5659603476524353,-0.026632143184542656
1790963465803571200,11.7935712890625,-0.07829240709543228,-0.5484740138053894,-0.04621170461177826
1790963465813652000,11.80365185546875,-0.1092042475938797,-0.531538188457489,-0.033914290368556976
1790963465823732000,11.81373193359375,-0.13089808821678162,-0.5013011693954468,0.0060048955492675304
1790963465833812000,11.82381201171875,-0.10310321301221848,-0.46587130427360535,0.03476543724536896
1790963465843892200,11.833892333984375,-0.08296652138233185,-0.4315921366214752,-0.024477912113070488
1790963465853972000,11.843971923828125,-0.09367402642965317,-0.40703460574150085,-0.06302370876073837
1790963465864052000,11.854052001953125,-0.07540713995695114,-0.3904590904712677,-0.0971185564994812
1790963465874132000,11.864132080078125,-0.05703292414546013,-0.35724788904190063,-0.05335989594459534
1790963465884212000,11.8742119140625,-0.046352319419384,-0.3073386549949646,0.056477125734090805
1790963465894293000,11.88429296875,-0.024563133716583252,-0.2772723436355591,0.08453086018562317
1790963465904373000,11.894373046875,-0.008894691243767738,-0.21141424775123596,-0.002638926263898611
1790963465914453000,11.904452880859376,-0.014258830808103085,-0.15679441392421722,-0.07782342284917831
1790963465924533000,11.914532958984376,0.01221751794219017,-0.12522050738334656,-0.07766416668891907
1790963465934613000,11.924613037109374,0.04219326004385948,-0.07639224082231522,0.007592406123876572
1790963465944693000,11.93469287109375,0.0632905587553978,-0.04110056534409523,0.07989935576915741
1790963465954773000,11.94477294921875,0.09962859004735947,-0.0031228226143866777,0.011433749459683895
1790963465964853000,11.95485302734375,0.10827081650495529,0.03519553691148758,-0.05270102992653847
1790963465974933000,11.96493310546875,0.08716180175542831,0.06178959831595421,0.03130572289228439
1790963465985013000,11.975012939453125,0.12031549215316772,0.07181905955076218,0.07001716643571854
1790963465995093000,11.985093017578125,0.11251136660575867,0.0966077670454979,0.14692765474319458
1790963466005173000,11.995173095703125,0.09783228486776352,0.11919909715652466,0.04607747867703438
1790963466015253000,12.0052529296875,0.11393561959266663,0.15494617819786072,-0.14526371657848358
1790963466025333000,12.0153330078125,0.10307658463716507,0.19360221922397614,-0.11297928541898727
1790963466035413000,12.0254130859375,0.13082805275917053,0.22052837908267975,-0.026008164510130882
1790963466045493000,12.035492919921875,0.1543397754430771,0.24036413431167603,0.07402975112199783
1790963466055574000,12.045573974609376,0.13100169599056244,0.2545393407344818,0.10851715505123138
1790963466065654000,12.055654052734376,0.1512307971715927,0.2799972891807556,0.0801909789443016
1790963466075734000,12.065734130859376,0.10598555207252502,0.2820708453655243,0.02624491974711418
1790963466085814000,12.07581396484375,0.1384715884923935,0.288520485162735,-0.01170352753251791
1790963466095894000,12.08589404296875,0.15655525028705597,0.27644702792167664,0.02965696156024933
1790963466105974000,12.09597412109375,0.1354001760482788,0.28434091806411743,0.07191866636276245
1790963466116054000,12.106053955078124,0.1381131261587143,0.27684757113456726,-0.04797231778502464
1790963466126134000,12.116134033203124,0.16244830191135406,0.2519744634628296,-0.01540665328502655
1790963466136214000,12.126214111328125,0.12365083396434784,0.2411569505929947,0.06938759982585907
1790963466146294000,12.1362939453125,0.1044371947646141,0.24083365499973297,0.07085606455802917
1790963466156374000,12.1463740234375,0.1255749613046646,0.24084989726543427,0.019778497517108917
1790963466166454000,12.1564541015625,0.13586223125457764,0.2398964911699295,0.01690042018890381
1790963466176534000,12.166533935546875,0.09288999438285828,0.19504378736019135,0.01654595322906971
1790963466186614000,12.176614013671875,0.133520245552063,0.17143966257572174,0.046557117253541946
1790963466196694000,12.186694091796875,0.11703687161207199,0.1835077702999115,0.004128698725253344
1790963466206775000,12.196775146484375,0.0882481038570404,0.1899598240852356,-0.020195549353957176
1790963466216855000,12.20685498046875,0.11053156852722168,0.18210561573505402,0.02742922678589821
1790963466226934800,12.216934814453126,0.07388167828321457,0.20825600624084473,0.019408319145441055
1790963466237015000,12.22701513671875,0.06780141592025757,0.20653772354125977,0.002831206424161792
1790963466247095000,12.237094970703126,0.08310393989086151,0.18854621052742004,0.02677781879901886
1790963466257175000,12.247175048828124,0.06730473786592484,0.1950794756412506,0.0113413380458951
1790963466267255000,12.257255126953124,0.06250918656587601,0.18811477720737457,-0.00697961263358593
1790963466277335000,12.2673349609375,0.09683600068092346,0.18130268156528473,-0.030248183757066727
1790963466287415000,12.2774150390625,0.07252933084964752,0.176632821559906,-0.003946272190660238
1790963466297494800,12.287494873046874,0.05182298272848129,0.17833006381988525,0.03846962749958038
1790963466307575000,12.297574951171875,0.10070078074932098,0.17582376301288605,0.10772886127233505
1790963466317655000,12.307655029296875,0.07308885455131531,0.18044300377368927,0.02111753635108471
1790963466327735000,12.317735107421875,0.08356120437383652,0.18907564878463745,0.0417032390832901
1790963466337815000,12.32781494140625,0.08279847353696823,0.19187809526920319,-0.0315864235162735
1790963466347894800,12.337894775390625,0.09649112075567245,0.19190898537635803,0.003379551460966468
1790963466357975000,12.34797509765625,0.07600235939025879,0.1700494885444641,0.0631193146109581
1790963466368056000,12.35805615234375,0.07031730562448502,0.1590234786272049,0.03400057554244995
