time,seconds_elapsed,z,y,x
1790964438991565800,0.05456591796875,6.694636754608154,7.276278120422363,-1.5710452018737793
1790964439001578500,0.06457861328125,6.822427268218994,7.32281541519165,-1.5161282012939452
1790964439011590700,0.074590576171875,7.150881808471679,7.218817280578613,-1.4082394889831542
1790964439021602600,0.0846025390625,7.315782447814941,7.341520115661621,-1.4969745880126952
1790964439031615500,0.094615478515625,7.231686114501953,7.452551217651367,-1.2624924629211425
1790964439041627600,0.104627685546875,7.020846730804443,7.105092701721191,-1.2247837867736815
1790964439051639600,0.1146396484375,6.871059489440918,6.544999150848389,-1.0643722755432128
1790964439061652700,0.12465283203125,6.8402341430664055,6.926425402832031,-0.3892074073791504
1790964439071664600,0.13466455078125,7.134720947265625,7.192331424713134,-0.3904045082092285
1790964439081676500,0.144676513671875,7.160907527923584,6.972663422393798,-0.699106884765625
1790964439091688700,0.154688720703125,7.033865202331542,7.111676756286621,-0.41195232315063474
1790964439101701400,0.164701416015625,6.8302084236145015,7.158064413452148,-0.2271498825073242
1790964439111713500,0.174713623046875,6.584802753448486,7.177367664337158,-0.37409400939941406
1790964439121725400,0.184725341796875,6.166266375732421,7.29109224319458,-0.26126725616455077
1790964439131738600,0.194738525390625,5.7140615371704095,7.397634217071532,0.06643909606933593
1790964439141750500,0.20475048828125,5.54781415939331,7.320870126342773,-0.17118541870117188
1790964439151762400,0.214762451171875,5.6283191902160645,7.3675570587158195,-0.6995557975769042
1790964439161774600,0.224774658203125,5.76493832244873,7.483077288818359,-0.7217021629333495
1790964439171787500,0.23478759765625,5.834819083404541,7.693767034912109,-0.8996212738037109
1790964439181799700,0.244799560546875,5.802198085784911,7.771578588867187,-0.766743081665039
1790964439191811600,0.2548115234375,5.864596966552734,7.674912696838378,-0.7505822204589844
1790964439201824800,0.26482470703125,5.878662901306152,7.6936173973083495,-0.512059880065918
1790964439211836700,0.274836669921875,6.0236617393493646,7.585878322601318,-0.2015618522644043
1790964439221848600,0.2848486328125,6.18631781463623,7.450157015991211,-0.09516951599121093
1790964439231861500,0.294861572265625,6.300790581512451,7.426514274597167,-0.2141314109802246
1790964439241873400,0.304873291015625,6.400149950408935,7.538443202209472,-0.4439747703552246
1790964439251885600,0.314885498046875,6.59467883529663,7.575702965545654,-0.5551555099487304
1790964439261897500,0.3248974609375,6.662763945007324,7.561786668395996,-0.5641337661743163
1790964439271910700,0.33491064453125,6.497264755249023,7.479934899139404,-0.6564601676940918
1790964439281922600,0.344922607421875,6.289717398834228,7.540238853454589,-0.8092401611328125
1790964439291934500,0.3549345703125,6.205770703124999,7.728782234191894,-0.7820061172485351
1790964439301947600,0.36494775390625,6.436511888122558,7.704391304779052,-0.5951087501525879
1790964439311959600,0.37495947265625,6.528838289642334,7.616105118560791,-0.49021278991699213
1790964439321971700,0.3849716796875,6.564900952148437,7.568520360565185,-0.6212953308105469
1790964439331984600,0.394984619140625,6.410774220275878,7.754669539642333,-0.6706757400512695
1790964439341996500,0.40499658203125,6.121973645019531,7.733869912719726,-0.9023147506713867
1790964439352008700,0.4150087890625,5.795614031219482,7.675511247253418,-0.9440636421203613
1790964439362020600,0.4250205078125,5.676502498626709,7.625981200408935,-0.8812158485412597
1790964439372033500,0.435033447265625,5.613505067443847,7.604583023071289,-0.7577648254394531
1790964439382048000,0.445048095703125,5.617694920349121,7.5822870201110835,-0.5418377632141113
1790964439392060000,0.455059814453125,5.67560467300415,7.602039183807372,-0.5002385093688965
1790964439402072800,0.46507275390625,5.711517697906494,7.70543876800537,-0.5008370597839356
1790964439412084700,0.475084716796875,5.6760535858154295,7.7608046813964835,-0.5612906517028808
1790964439422097000,0.485096923828125,5.686528218078613,7.767987286376953,-0.6753145057678223
1790964439432108800,0.49510888671875,5.7514709381103515,7.7395561416625975,-0.7757213378906249
1790964439442121700,0.505121826171875,5.980566109466553,7.647678652954101,-0.6783072578430175
1790964439452134000,0.5151337890625,6.244676480102538,7.647529015350341,-0.5418377632141113
1790964439462145800,0.525145751953125,6.571485006713867,7.683442040252685,-0.47554830474853516
1790964439472159000,0.535158935546875,6.6902972640991205,7.710526446533203,-0.44966099929809566
1790964439482171000,0.5451708984375,6.623858168029785,7.791480390167236,-0.6120177993774414
1790964439492182800,0.555182861328125,6.3992521247863765,7.904905693817138,-0.6144120010375976
1790964439502195700,0.56519580078125,6.1641714492797846,7.970895877075195,-0.4860229370117187
1790964439512208000,0.575207763671875,5.9246016456604,7.871386870574951,-0.5169979209899902
1790964439522219800,0.5852197265625,5.622333686065674,7.759009030151367,-0.6798036338806152
1790964439532232700,0.595232666015625,5.206640422821045,7.620893521881103,-0.7633014167785644
1790964439542244900,0.605244873046875,4.5413516365051265,7.5810899192810055,-0.9026140258789062
1790964439552256800,0.6152568359375,4.110245700073242,7.826645227050781,-0.7773673515319823
1790964439562268700,0.6252685546875,3.9050925453186034,7.414243991088867,0.23014263458251952
1790964439572280800,0.63528076171875,3.9145197143554684,6.780977651977539,0.7707832969665527
1790964439582293800,0.645293701171875,4.242375704193115,6.65932228012085,-0.3895066825866699
1790964439592306000,0.655305908203125,4.639064991760254,7.052270627593994,-1.4362217208862305
1790964439602317800,0.66531787109375,5.257217932891845,7.433696879577636,-2.323123798370361
1790964439612331000,0.6753310546875,6.443544855499267,7.752574613189696,-3.3714848503112793
1790964439622343000,0.685343017578125,8.023418675994872,8.093149799346923,-3.612850305175781
1790964439632354800,0.695354736328125,9.188197783660888,7.96131907043457,-2.4102128837585446
1790964439642367000,0.705366943359375,9.494805233764648,7.489661343383789,-1.852064621734619
1790964439652379600,0.715379638671875,9.102455436706542,7.2258502479553215,-1.8089689918518066
1790964439662391800,0.725391845703125,8.141033832550049,7.393893276977539,-1.7598878578186035
1790964439672403700,0.73540380859375,7.4494088279724116,7.528417482757568,-1.3902829765319824
1790964439682417000,0.7454169921875,7.2246531471252435,7.583484120941161,-1.4673463424682616
1790964439692428800,0.7554287109375,7.042993096160888,7.486070040893554,-1.8275240547180174
1790964439702440700,0.765440673828125,6.848314573669433,7.351396197509765,-1.7763479942321776
1790964439712454000,0.775453857421875,6.518962207794189,7.130830369567871,-1.5560814414978026
1790964439722465800,0.7854658203125,6.15459464263916,6.956053648376464,-1.3379098152160644
1790964439732478000,0.79547802734375,5.934926640319824,6.942586264038085,-1.213560966491699
1790964439742491000,0.805490966796875,5.871779571533203,6.974459073638916,-1.3040917167663573
1790964439752503000,0.8155029296875,5.88000963973999,6.925976490020751,-1.4287398406982421
1790964439762515000,0.825514892578125,5.990591828918457,6.8785413696289055,-1.2880804931640624
1790964439772526800,0.83552685546875,6.244676480102538,7.059153957366943,-0.949300958251953
1790964439782539800,0.845539794921875,6.347028601074219,7.241113283538818,-0.835726016998291
1790964439792551700,0.8555517578125,6.3892264053344725,7.289745504760742,-0.9504980590820312
1790964439802563800,0.865563720703125,6.426037255859375,7.276427758026123,-1.0951976219177246
1790964439812576800,0.87557666015625,6.4743702018737785,7.275529932403564,-1.2086229255676268
1790964439822589000,0.8855888671875,6.554276682281494,7.357232064056396,-1.2722189071655272
1790964439832600800,0.895600830078125,6.738779847717285,7.4134958030700675,-1.1743559143066407
1790964439842614000,0.905614013671875,6.991966673278808,7.417685655975341,-1.0811316871643066
1790964439852626000,0.9156259765625,7.089530390930175,7.3545385871887206,-0.955136824798584
1790964439862637800,0.925637939453125,6.879289557647705,7.235875967407226,-0.9117419197082519
1790964439872650000,0.93564990234375,6.575076309204102,7.089829666137695,-0.9012672874450683
1790964439882662700,0.94566259765625,6.349123527526855,7.015010864257812,-0.9808744926452636
1790964439892674800,0.9556748046875,6.294356164550781,7.15641839981079,-1.319055477142334
1790964439902686700,0.965686767578125,6.337002881622314,7.395389653015136,-1.304241354370117
1790964439912700000,0.975699951171875,6.477662229156493,7.45045629119873,-1.0760440086364746
1790964439922711800,0.9857119140625,6.635978813934326,7.34211866607666,-1.0651204635620117
1790964439932723700,0.9957236328125,6.5014546081542965,7.320720488739013,-0.9192237998962401
1790964439942737000,1.00573681640625,6.213551858520508,7.324311791229247,-0.9454103805541991
1790964439952748800,1.015748779296875,6.011092180633544,7.350498371887206,-1.0574889457702636
1790964439962761000,1.025760986328125,6.235398948669433,7.445069337463378,-1.2982558502197266
1790964439972774000,1.03577392578125,6.485593022155761,7.456741070556641,-1.5656582481384276
1790964439982786000,1.0457861328125,6.627299832916259,7.382371181488037,-1.5713444770812988
1790964439992798000,1.0557978515625,6.728305215454101,7.357082426452636,-1.4851532173156738
1790964440002809900,1.065809814453125,6.790704096221924,7.331344758605956,-1.3435960441589354
1790964440012822800,1.07582275390625,6.76691171722412,7.186345920562744,-1.2208932090759277
1790964440022834700,1.085834716796875,6.832303350067138,7.078008295440673,-0.9756371765136718
1790964440032846800,1.095846923828125,7.057208668518066,7.268197689819336,-0.965910732269287
1790964440042859800,1.10585986328125,7.280019060516357,7.8016557472229,-1.345840608215332
1790964440052872000,1.115871826171875,7.205948446655273,8.084171543121338,-1.8778022895812987
1790964440062883800,1.1258837890625,6.927921778869629,7.501183438873291,-1.9319711021423338
1790964440072897000,1.13589697265625,6.922385187530518,7.526322556304931,-1.7790414710998534
1790964440082909000,1.145908935546875,6.70361501083374,7.579144630432128,-1.2804489753723143
1790964440092920800,1.1559208984375,6.465691220855713,7.4131965278625485,-0.8658031753540039
1790964440102933000,1.16593310546875,6.247818869781494,7.14369920349121,-0.7935282127380371
1790964440112946000,1.17594580078125,6.170156953430175,6.906373963928222,-0.6871358764648438
1790964440122957800,1.185957763671875,5.832873794555664,6.753593970489502,-0.6610989334106445
1790964440132970000,1.195969970703125,5.70119270324707,6.465691220855713,-0.5931634613037109
1790964440142983000,1.20598291015625,5.81626402053833,6.477362953948974,-0.47120881423950195
1790964440152994800,1.215994873046875,5.614552530670165,6.8587892059326165,-0.1997662010192871
1790964440163006700,1.2260068359375,5.306448704528808,7.232284664916992,-0.323666136932373
1790964440173020000,1.23602001953125,5.33712441329956,7.639598222351074,-0.6631938598632812
1790964440183031800,1.24603173828125,5.836764372253418,7.76319888305664,-0.5624877525329589
1790964440193044000,1.2560439453125,6.730699417114257,7.707384056854248,-0.4204816665649414
1790964440203057000,1.266056884765625,7.236025605010986,7.695263410949707,-0.5258265396118164
1790964440213069000,1.276069091796875,7.38671067199707,7.772775689697265,-0.7312789695739745
1790964440223081000,1.2860810546875,7.108833641815185,7.83951406097412,-0.9558850128173828
1790964440233093600,1.29609375,6.490531063079834,7.889493020629883,-1.0549451065063475
1790964440243105800,1.306105712890625,5.9956795074462885,7.788188362884521,-1.1875240234375
1790964440253117700,1.31611767578125,5.749675286865234,7.615656205749511,-1.3314753982543945
1790964440263129900,1.3261298828125,5.596446380615234,7.426364636993408,-1.1406874534606932
1790964440273142800,1.336142822265625,5.456086308288574,7.417236743164062,-0.8152256652832031
1790964440283155000,1.346155029296875,5.5090580200195305,7.611316715240478,-0.5915174476623535
1790964440293166800,1.356166748046875,5.734112976074218,7.690774282836913,-0.6753145057678223
1790964440303179800,1.3661796875,5.965452711486816,7.550713485717773,-0.7128735443115234
1790964440313192000,1.37619189453125,6.069151570892334,7.564031232452392,-0.6380547424316406
1790964440323203800,1.386203857421875,6.112247200775146,7.733121724700927,-0.5472247169494628
1790964440333217000,1.396217041015625,6.1367877677917475,7.76364779586792,-0.8572738319396972
1790964440343229000,1.40622900390625,6.191255855560303,7.767688011169433,-1.3985130447387695
1790964440353241000,1.416240966796875,6.2587424148559565,7.8900915710449215,-1.4692916313171387
1790964440363253800,1.426253662109375,6.49935968170166,7.8639049903869624,-1.3881880500793455
1790964440373263000,1.43626318359375,6.508487575531006,7.87812056274414,-1.438915197753906
1790964440383275000,1.44627490234375,6.18003303527832,7.993640792846679,-1.443404325866699
1790964440393288200,1.4562880859375,6.1355906669616695,7.986308550262451,-1.0133458526611328
1790964440403300000,1.466300048828125,6.531980679321289,7.9773302940368644,-0.5383960983276367
1790964440413312000,1.47631201171875,6.855946091461181,7.860014412689209,-0.16071078643798828
1790964440423324200,1.48632421875,6.965780092620849,7.920168729400634,0.5430348640441894
1790964440433337000,1.496337158203125,6.603058541107178,7.779210106658935,0.4149450752258301
1790964440443349200,1.506349365234375,5.864746604156494,7.548468921661376,0.20979192047119138
1790964440453361200,1.516361083984375,4.793490998840332,7.41903239440918,-0.050427872467041016
1790964440463374000,1.5263740234375,3.261052298736572,6.634781713104248,0.6168062026977539
1790964440473386000,1.536385986328125,1.7012299171447753,7.110479655456542,-1.058536408996582
1790964440483398000,1.54639794921875,0.5144540817260742,8.446893094635008,-2.6226982810974118
1790964440493411000,1.5564111328125,-0.02858078231811523,7.714716299438476,-0.27249007644653317
1790964440503423000,1.566423095703125,0.24046762924194334,7.6756608848571775,-0.41150341033935545
1790964440513435100,1.57643505859375,1.1851298217773436,7.433247966766357,-1.6584335624694824
1790964440523448000,1.586447998046875,1.782483135986328,7.126790154266357,-2.0513819099426267
1790964440533460200,1.596460205078125,2.2746412147521973,6.561010374450683,-1.6630723281860351
1790964440543472000,1.60647216796875,3.029413288116455,5.285349802398681,-0.5083189399719238
1790964440553485000,1.616485107421875,3.825335702514648,4.332008628845214,-1.019630632019043
1790964440563497000,1.6264970703125,4.716577270507813,3.8590041633605954,-1.0287585258483887
1790964440573508900,1.6365087890625,7.031171725463866,5.424961686706543,0.09142857589721679
1790964440583521000,1.64652099609375,9.423577734375,5.233575191497803,-1.4559738845825194
1790964440593534000,1.656533935546875,9.939228916931151,5.079897372436523,-2.4539070640563962
1790964440603546000,1.666546142578125,9.507225154876709,4.57741429901123,-4.036025448608398
1790964440613558000,1.67655810546875,12.993631684875487,5.38815083618164,-5.150975234222412
1790964440623571200,1.6865712890625,14.667627558135985,5.880608190155029,-3.1712697364807125
1790964440633583000,1.6965830078125,14.32001940460205,5.7966614944458,-1.1577461402893066
1790964440643595000,1.706594970703125,14.02687933883667,5.26050996017456,-0.6316203254699707
1790964440653608200,1.716608154296875,13.802273295593261,4.851101476287842,-0.14589666366577148
1790964440663620000,1.7266201171875,13.485041575622558,4.423586842346191,-0.15786767196655271
1790964440673632300,1.73663232421875,13.128155890655517,4.083759844207764,-0.8475473876953125
1790964440683645000,1.74664501953125,12.37353345489502,3.592349953460693,-1.9798551353454588
1790964440693657000,1.756656982421875,11.853842057037353,2.6952725189208984,-2.7180174346923827
1790964440703669000,1.7666689453125,11.247959399414063,1.553387964630127,-3.116951286315918
1790964440713682200,1.77668212890625,10.155305616760254,0.9118915573120117,-3.464858715057373
1790964440723694000,1.786694091796875,8.902539598083495,0.9970353538513183,-3.872022634887695
1790964440733706000,1.7967060546875,7.914632138061523,1.618480322265625,-4.263474606323242
1790964440743719200,1.80671923828125,7.331195121002197,2.3226748855590817,-4.284423870849609
1790964440753731000,1.81673095703125,7.132027470397949,2.7506384323120114,-4.009988505554199
1790964440763743200,1.8267431640625,7.313238608551025,2.9973908409118653,-4.3251252990722655
1790964440773756000,1.836755859375,7.782202858734131,3.0207343070983885,-5.218461793518066
1790964440783768000,1.84676806640625,7.805097412109374,2.9550433990478515,-6.127210961151123
1790964440793780000,1.856780029296875,7.600991720581054,2.6604069572448727,-5.825242276763916
1790964440803792000,1.8667919921875,7.761852144622802,2.4488193855285645,-5.14573791809082
1790964440813805000,1.87680517578125,7.770381488037109,2.29828395614624,-4.680813883209228
1790964440823817000,1.88681689453125,7.662343138122558,1.9205986442565917,-4.721814586639404
1790964440833829000,1.8968291015625,7.328202368927002,1.8267758666992187,-4.601805228424072
1790964440843842000,1.906842041015625,7.062296347045898,1.918503717803955,-5.3378726013183595
1790964440853854000,1.91685400390625,6.719775872039794,1.7989432723999021,-6.246921044158936
1790964440863866000,1.9268662109375,6.5589154479980465,1.7600374954223632,-6.367977865600586
1790964440873879000,1.936879150390625,6.682965021514892,2.051232272338867,-6.198887373352051
1790964440883891200,1.94689111328125,6.551134292602539,2.6116250984191893,-5.981463935089111
1790964440893903000,1.956903076171875,6.337751069641113,3.057395520019531,-5.780949546051025
1790964440903916000,1.966916015625,6.174047531127929,3.2632968627929686,-5.902904193115234
1790964440913928000,1.976927978515625,6.257395676422119,3.352331237030029,-6.610540421295165
1790964440923939800,1.98693994140625,6.745214264678955,3.226635649871826,-7.7036431167602535
1790964440933953000,1.996953125,7.5427826927185055,2.7494413314819335,-8.258798626708984
1790964440943965000,2.00696484375,8.259097901916503,2.5151088439941405,-7.918821990966796
1790964440953977000,2.01697705078125,8.43447317352295,2.902969512939453,-7.359775903320312
1790964440963990000,2.026989990234375,7.876175273895263,3.6240731254577634,-7.134870584869384
1790964440974002200,2.037002197265625,7.295731008911132,4.1472061882019045,-6.880785933685302
1790964440984014000,2.04701416015625,7.400028418731689,4.262127867889404,-6.637924102783202
1790964440994027300,2.05702734375,8.029254542541503,4.27095648651123,-7.132925296020507
1790964441004039200,2.0670390625,8.81619870071411,4.412962572479247,-7.919420541381835
1790964441014051000,2.077051025390625,9.44228243484497,4.665700485229492,-7.866598467254638
1790964441024064000,2.08706396484375,9.310900618743895,5.010166249084472,-7.302913613891601
1790964441034076000,2.097075927734375,8.767716117095947,5.547514884185791,-6.657376991271972
1790964441044088000,2.107088134765625,8.225130165863037,6.10985299911499,-5.813420906066894
1790964441054101000,2.11710107421875,7.676708348083496,6.348375339508056,-5.1331683593749995
1790964441064113200,2.127113037109375,6.842179431915283,6.561309649658202,-4.605246893310547
1790964441074125000,2.137125,6.226869605255127,7.004236956787109,-4.397250624084473
1790964441084138200,2.14713818359375,6.134393566131592,7.452102304840087,-4.565742565917969
1790964441094150100,2.157150146484375,6.196044258880615,7.696310874176025,-4.591480233764648
1790964441104162000,2.167162109375,6.542604949188232,7.5433812431335445,-4.582501977539062
1790964441114175000,2.177175048828125,6.608445494842529,7.050026063537597,-4.4205940902709955
1790964441124187000,2.187186767578125,5.998073709106445,6.559214723205566,-3.8329672203063962
1790964441134199000,2.197198974609375,5.453692106628417,6.526144812774658,-3.095104196166992
1790964441144212000,2.2072119140625,4.41131655883789,6.759579474639892,-2.555810272216797
1790964441154224000,2.21722412109375,3.1982045051574706,6.572981382751465,-2.47066647567749
1790964441164236000,2.227236083984375,3.0460230621337887,5.467458766174316,-2.2667104217529297
1790964441174249200,2.237249267578125,3.264194688415527,4.552574456787109,-2.291550263977051
1790964441184261000,2.24726123046875,3.2849943153381345,4.8397290184021,-2.959831802368164
1790964441194273000,2.25727294921875,3.395277229309082,5.364657732391357,-3.743035020446777
1790964441204286200,2.2672861328125,3.2466870887756345,5.433640667724609,-3.961505921936035
1790964441214298000,2.277298095703125,2.834734765625,4.544942938995361,-3.6736031723022458
1790964441224310300,2.287310302734375,2.623147193908691,3.6270658775329587,-3.048566901397705
1790964441234323000,2.297322998046875,2.295141566467285,3.574393441009521,-1.9713257919311522
1790964441244335000,2.307335205078125,1.610848804473877,4.2025721015930175,-1.464652865600586
1790964441254347000,2.317346923828125,0.910395181274414,5.067327813720703,-2.1594202598571774
1790964441264360000,2.32735986328125,0.4745008415222168,5.271583142852783,-2.864811923980713
1790964441274372000,2.3373720703125,0.7644985176086425,4.788702595520019,-2.5254338386535644
1790964441284384000,2.347384033203125,1.732803451538086,4.636371514892578,-1.9547160179138183
1790964441294397200,2.357397216796875,2.0790648666381837,4.8612768333435055,-1.3154641746520996
1790964441304409000,2.3674091796875,1.684769780731201,5.539733728790283,-1.5132850868225096
1790964441314421200,2.377421142578125,0.5693710823059082,5.811475617218017,-1.650951682281494
1790964441324434000,2.387433837890625,-0.6733692169189452,6.11015227432251,-1.3175591011047363
1790964441334446000,2.397446044921875,-1.0917559570312498,6.654234601593017,-1.334917063140869
1790964441344458000,2.4074580078125,-1.2389993591308592,6.94004242477417,-1.0468646759033202
1790964441354471000,2.417470947265625,-1.324143155670166,7.407659936523437,0.2677016731262207
1790964441364483000,2.427483154296875,-1.421108322906494,8.03119983139038,1.6885107208251953
1790964441374495700,2.437495849609375,-1.424849263000488,8.632443723297119,2.9818285301208496
1790964441384508700,2.4475087890625,-1.3076830192565918,8.977657675170898,3.9905356170654294
1790964441394520800,2.457520751953125,-1.1442787559509278,8.914809881591797,4.064905506134033
1790964441404532700,2.46753271484375,-0.8016086433410644,8.620622352600098,3.7216368431091307
1790964441414545700,2.477545654296875,-0.2271498825073242,8.589647368621826,3.222146521759033
1790964441424557600,2.4875576171875,0.07631517791748046,9.076717768859863,2.9129952323913573
1790964441434569500,2.497569580078125,-0.13437456817626953,9.71716671295166,2.2001216880798338
1790964441444582700,2.507582763671875,-0.0613514175415039,10.721833584594727,1.835454847717285
1790964441454594600,2.517594482421875,0.7784148147583008,11.404779608154296,1.431433317565918
1790964441464606700,2.527606689453125,2.139518458557129,11.543044754028319,1.1834838081359862
1790964441474619600,2.53761962890625,2.7801170402526854,11.340136163330078,1.0199299072265624
1790964441484631800,2.5476318359375,2.612522924041748,11.033079800415038,1.4031518104553222
1790964441494643700,2.557643798828125,2.3391350219726563,10.781090075683593,2.4914661026000977
1790964441504657000,2.567656982421875,1.890970398712158,10.951377668762206,3.219602682495117
1790964441514668800,2.577668701171875,0.9316437210083007,11.61277587738037,3.369090648651123
1790964441524680700,2.5876806640625,-0.4364928901672363,12.644377517700194,3.5700539505004882
1790964441534693600,2.597693603515625,-1.5997756217956542,13.116334519958496,3.605966975402832
1790964441544705500,2.60770556640625,-2.2671593345642087,12.974029158782958,3.6864720062255856
1790964441554718700,2.61771875,-2.4794950942993164,12.65305649871826,3.877409588623047
1790964441564730600,2.627730712890625,-2.1327847663879393,12.118850253295898,3.6653731040954587
1790964441574742800,2.63774267578125,-1.5511434005737303,11.29359886856079,2.890998504638672
1790964441584755700,2.647755615234375,-0.8291419624328613,10.874015027618407,2.2493524597167966
1790964441594767600,2.657767578125,-0.6708253776550293,10.477924290466309,1.6602292137145995
1790964441604779800,2.66777978515625,-1.0396820709228516,10.066869792938231,1.4938321983337401
1790964441614792700,2.677792724609375,-1.490689808654785,9.56318961868286,1.69180274810791
1790964441624804600,2.6878046875,-2.2723966506958004,9.260323108673095,1.7609353210449217
1790964441634816800,2.697816650390625,-2.878578583526611,9.581744681549072,1.6397288619995116
1790964441644829700,2.70782958984375,-2.818274629211426,10.168773001098632,1.2600982612609863
1790964441654841600,2.717841552734375,-2.1773767723083495,10.31077908706665,0.7930792999267577
1790964441664853500,2.727853515625,-1.1327566604614256,10.120440055084227,0.8533832542419433
1790964441674866700,2.73786669921875,-0.2855085479736328,9.7936315284729,1.2214917594909667
1790964441684878600,2.747878662109375,0.26964696197509763,9.841814836883545,0.5817910034179687
1790964441694891800,2.757891845703125,1.0254664985656738,10.210521892547607,-0.8892962791442871
1790964441704903700,2.767903564453125,1.239148996734619,10.285639969635008,-1.668160006713867
1790964441714915800,2.777915771484375,0.9578303016662597,10.245686729431151,-1.5550339782714844
1790964441724928500,2.787928466796875,0.8990227233886718,10.262296503448486,-1.1782464920043945
1790964441734940700,2.797940673828125,1.2373533454895018,10.36719246368408,-0.9686042091369629
1790964441744952600,2.80795263671875,1.6279074913024902,10.443358003997803,-1.0298059890747069
1790964441754965800,2.8179658203125,2.442833881378174,10.402955850982666,-1.0203788200378416
1790964441764977700,2.827977783203125,3.143586779785156,10.447996769714354,-0.9847650703430175
1790964441774990800,2.837990966796875,3.3304841468811035,10.519972457122803,-1.1110592079162598
1790964441785002800,2.848002685546875,3.1208418640136717,10.761038636779784,-1.0269628746032715
1790964441795014700,2.8580146484375,2.314295179748535,10.979359900665283,-1.0224737464904785
1790964441805027800,2.86802783203125,1.6229694503784178,11.008688871002196,-1.2994529510498045
1790964441815039700,2.878039794921875,1.5240589942932128,10.925490363311766,-0.8117840003967285
1790964441825052000,2.888052001953125,1.4131775299072264,10.55932714691162,-0.08020575561523437
1790964441835064600,2.898064697265625,0.5753565864562988,10.804732817077635,0.8038532073974609
1790964441845076700,2.90807666015625,-1.0003273811340332,11.358541588592528,0.19093758239746092
1790964441855088600,2.918088623046875,-2.6978163581848142,11.674576207733153,-0.5003881469726562
1790964441865101600,2.9281015625,-3.9022494308471676,11.74056639099121,-0.45968671875
1790964441875113700,2.93811376953125,-3.8379052612304685,11.986570611572265,-0.045938744354248044
1790964441885126700,2.948126708984375,-3.1673791587829587,12.113762574768066,-0.11222820281982421
1790964441895138800,2.958138916015625,-2.8303952751159667,12.068721656036375,-0.26381109542846676
1790964441905150700,2.968150634765625,-3.4051533111572265,12.256217573547362,-0.5196913978576659
1790964441915163600,2.97816357421875,-4.091391361999512,12.041188336944579,-1.1915642387390135
1790964441925175600,2.988175537109375,-3.490297107696533,11.692981632995604,-1.2433388496398925
1790964441935187500,2.9981875,-2.4006360771179196,11.067346811676025,-0.7451952667236328
1790964441945200600,3.00820068359375,-1.3884873252868652,10.255862086486816,-0.49245735397338863
1790964441955212500,3.018212646484375,-0.3003226707458496,9.349956033325196,-0.09980828170776367
1790964441965224700,3.028224609375,0.7920318367004394,8.456469901275634,-0.14933832855224607
1790964441975237600,3.038237548828125,1.9032406822204588,8.243086678314208,-0.6976105087280273
1790964441985249800,3.048249755859375,2.5540146209716794,8.707412162780761,-1.2645873893737791
1790964441995262700,3.0582626953125,2.7370214103698727,8.550741591644286,-1.5346832641601562
1790964442005275000,3.06827490234375,2.1206641204833985,7.58438194656372,-0.7047931137084961
1790964442015286800,3.078286865234375,1.415272456359863,7.0765119194030754,0.28012159423828126
1790964442025299700,3.0882998046875,0.8566752815246581,6.898143895721435,0.03681085052490234
1790964442035311600,3.0983115234375,0.04833294601440429,6.998850003051757,-0.732326432800293
1790964442045323500,3.108323486328125,-0.03277063522338867,7.459883460235595,-1.4917372718811035
1790964442055336700,3.118336669921875,0.25049334869384765,7.855824559783935,-1.3672387855529784
1790964442065348600,3.1283486328125,0.26186580657958985,8.9508725440979,0.018255787658691406
1790964442075361800,3.13836181640625,0.15307926864624022,10.842142218017578,1.4472949035644531
1790964442085373700,3.148373779296875,0.8233060958862304,12.312780587768554,2.371756019592285
1790964442095385900,3.1583857421875,1.727566135406494,12.765135063934325,3.018340105438232
1790964442105398500,3.1683984375,2.5822961280822754,12.046724928283691,3.8367081604003905
1790964442115410700,3.17841064453125,3.7720647155761715,10.797550212097168,4.313902478790283
1790964442125422600,3.188422607421875,4.97365467376709,10.088267970275878,4.088847522735596
1790964442135435500,3.198435546875,4.98562568206787,10.094852024841307,2.9988872169494627
1790964442145447700,3.20844775390625,3.893720087432861,10.985794317626953,2.3650223274230955
1790964442155459600,3.21845947265625,2.390161444854736,12.406603365325926,3.1248820793151855
1790964442165472800,3.22847265625,1.0678139404296874,12.974926984405517,3.480570663452148
1790964442175484700,3.238484619140625,1.0114005638122558,12.051812606811522,2.6535236274719236
1790964442185497900,3.248497802734375,2.123357597351074,10.448894595336913,2.568379830932617
1790964442195509800,3.258509765625,3.615543782043457,9.122207600402831,2.7832594299316407
1790964442205521700,3.268521728515625,4.659415705871582,8.775497272491455,2.0427029289245606
1790964442215534600,3.27853466796875,4.7295957420349115,8.609698807525634,1.000477018737793
1790964442225546500,3.28854638671875,4.112190988922119,8.481609018707275,0.9861118087768554
1790964442235558700,3.29855859375,4.37300933227539,8.818143989562987,1.36634095993042
1790964442245571600,3.308571533203125,4.624999057006836,9.277381795501709,1.2024877838134764
1790964442255583700,3.318583740234375,4.3254245742797846,9.495254146575927,0.8035539321899413
1790964442265596700,3.3285966796875,3.8736686485290526,9.931148486328125,0.5002385093688965
1790964442275608800,3.33860888671875,2.817975354003906,10.956614984893799,0.061949967956542965
1790964442285620700,3.348620849609375,0.783352855682373,12.131419812011718,-1.3807061698913574
1790964442295634000,3.358634033203125,0.13482348098754882,12.223446938323974,-2.4844331352233886
1790964442305645800,3.368645751953125,0.17776947326660156,12.025027475738524,-2.558803024291992
1790964442315657700,3.37865771484375,0.1292868896484375,11.067646086883544,-2.841618095397949
1790964442325670700,3.388670654296875,0.9889549232482909,8.962993190002441,-3.4980782630920406
1790964442335682600,3.3986826171875,2.086546746826172,6.595277385711669,-1.9659388381958007
1790964442345694700,3.40869482421875,2.5522189697265625,5.544821407318115,-0.5355529838562011
1790964442355707600,3.418707763671875,2.0272902557373045,6.255151112365723,-0.9503484214782715
1790964442365719800,3.4287197265625,1.4173673828125,8.278401152801512,-1.861641428375244
1790964442375732200,3.438732177734375,0.958877764892578,9.291298092651367,-3.0262708984374997
1790964442385744100,3.448744140625,0.643591333770752,9.226654647827148,-3.2809541000366207
1790964442395756000,3.458756103515625,0.8328829025268554,8.420407238769531,-2.9447184043884276
1790964442405769200,3.468769287109375,2.3433248748779296,7.145794129943847,-2.8707974281311035
1790964442415781000,3.478781005859375,3.3987188941955564,5.613654705047607,-4.434360749816895
1790964442425793300,3.488793212890625,2.8522423652648925,4.8903065284729,-5.902455280303955
1790964442435806000,3.498805908203125,2.1110873138427735,5.49035331954956,-5.998522621917724
1790964442445818000,3.508818115234375,0.034715924072265626,6.141426533508301,-5.499780488586426
1790964442455831000,3.5188310546875,-3.1726164749145505,6.4567129646301265,-4.46219334411621
1790964442465843200,3.52884326171875,-5.514594611358643,7.005583695220947,-4.012681982421875
1790964442475855000,3.538855224609375,-6.064213529968262,8.578574185943603,-4.229955783081055
1790964442485868300,3.548868408203125,-5.444115299987793,10.583718076324462,-5.323058478546142
1790964442495880200,3.558880126953125,-4.843170683288574,11.449970164489745,-6.268618496704101
1790964442505892000,3.56889208984375,-4.338293408203125,11.356745937347412,-4.827309097290039
1790964442515905000,3.578905029296875,-3.7364509658813474,10.618733275604248,-2.302324171447754
1790964442525917000,3.5889169921875,-3.8817490791320797,9.839121360015868,-0.8155249404907227
1790964442535930000,3.59893017578125,-3.6050691497802734,9.446621925354004,-0.330699104309082
1790964442545942000,3.60894189453125,-3.1784523414611816,9.71731635055542,-0.7255927406311035
1790964442555954200,3.6189541015625,-1.879448303222656,9.884461553955077,-0.8592191207885742
1790964442565967000,3.628967041015625,0.6572083557128906,10.964994690704344,-0.2624643569946289
1790964442575979000,3.63897900390625,2.9893104103088377,12.586318127441405,-0.8916904808044434
1790964442585991200,3.6489912109375,5.780799908447265,13.312210143280028,-3.4644098022460934
1790964442596004000,3.659004150390625,4.1745898696899415,11.9518546875,-2.2267571815490723
1790964442606016300,3.669016357421875,1.7353472908020018,9.042301119995116,-0.09352350234985352
1790964442616028200,3.679028076171875,1.1532570121765136,9.09138225402832,-1.6865654319763184
1790964442626041000,3.689041015625,2.5559599098205563,11.616666455078125,-2.532766081237793
1790964442636053000,3.699052978515625,3.398419618988037,13.55402451095581,-2.0952257278442383
1790964442646066200,3.709066162109375,2.2104466827392577,11.23718549194336,-2.07487501373291
1790964442656078000,3.719078125,2.048239520263672,10.198550884246826,-1.4866495933532713
1790964442666090000,3.729090087890625,1.8849848945617675,10.389488466644286,-1.2102689392089843
1790964442676103200,3.739103271484375,0.16355390090942382,10.790966157531738,-1.1604396171569824
1790964442686115000,3.749114990234375,-2.29199917678833,10.566210476684569,-1.1581950531005858
1790964442696127200,3.759127197265625,-3.9845501129150387,10.074650948333739,-0.5074211143493652
1790964442706140200,3.76914013671875,-3.8817490791320797,9.933692325592041,-0.2868552864074707
1790964442716152000,3.779152099609375,-2.8764836570739742,9.772981539154053,-0.9897031112670898
1790964442726165000,3.7891650390625,-1.673247685241699,9.850344180297851,-0.881664761352539
1790964442736177200,3.79917724609375,0.051774610900878905,10.55274309234619,0.2180219886779785
1790964442746189000,3.80918896484375,1.11075993270874,11.157727924346924,0.6989572471618652
1790964442756202000,3.819201904296875,1.5547347030639647,11.722909153747558,-0.7401075881958007
1790964442766214100,3.829214111328125,2.1327847663879393,12.204293325042723,-1.8989011917114256
1790964442776226000,3.83922607421875,2.459892568206787,11.861174299621581,-0.5407902999877929
1790964442786239200,3.8492392578125,3.0563480567932126,9.967809699249267,0.6293757614135742
1790964442796251100,3.859251220703125,3.9366660797119137,8.109310660552978,0.8158242156982422
1790964442806264000,3.86926416015625,4.913201081848144,7.148786882019042,1.0603320602416992
1790964442816276000,3.87927587890625,5.486163466644287,6.292410875701904,0.3755903854370117
1790964442826287900,3.889287841796875,4.424783943176269,6.2976481918334954,-1.466448516845703
1790964442836301000,3.899301025390625,2.1945850967407226,7.122749938964843,-2.9945477264404294
1790964442846313000,3.90931298828125,0.3847182792663574,7.267150226593017,-4.16920291595459
1790964442856326100,3.919326171875,-0.20979192047119138,7.269993341064453,-4.274547789001464
1790964442866338000,3.929338134765625,0.15442600708007811,6.76092621307373,-4.819677579498291
1790964442876350200,3.93935009765625,0.7046434761047363,5.904400569152831,-6.535871257019043
1790964442886363100,3.949363037109375,1.7277157730102537,6.1364884925842285,-6.971017408752441
1790964442896375300,3.959375244140625,3.2626983123779296,7.276876670837402,-6.051195058441162
1790964442906387200,3.96938720703125,4.553322644805908,8.614636848449706,-5.074360781097412
1790964442916400000,3.979400146484375,5.420921471405029,9.6917283203125,-4.152593141937255
1790964442926412000,3.989412109375,5.7602995567321775,9.459939672088623,-4.666149398040771
1790964442936425200,3.99942529296875,5.653308670043945,8.115296164703368,-6.095637426757812
1790964442946437000,4.00943701171875,5.993584580993652,6.817189952087402,-6.599167963409424
1790964442956449000,4.019448974609375,6.386682566070556,6.0598740394592285,-6.1632736236572265
1790964442966462200,4.029462158203125,6.513126341247558,5.792172366333007,-5.590011963653565
1790964442976474000,4.03947412109375,6.222679752349853,6.02036971206665,-5.035155728912353
1790964442986486300,4.049486328125,5.200954193878173,6.630142947387695,-4.459948780059814
1790964442996499000,4.0594990234375,3.7524621894836425,7.123198851776123,-4.4470799461364745
1790964443006511000,4.069510986328125,2.8139351387023925,7.315183897399902,-4.621108479309082
1790964443016524000,4.07952392578125,2.176478946685791,7.620743884277343,-4.389319831085205
1790964443026536000,4.089535888671875,2.019509100341797,8.330175763702393,-4.095730852508544
1790964443036548000,4.099548095703125,2.126649624633789,9.227851748657226,-4.228609044647216
1790964443046561000,4.10956103515625,2.5239374626159665,9.909301396179199,-4.5982139259338375
1790964443056573200,4.1195732421875,3.6878187446594235,10.084676667785644,-4.857984806060791
1790964443066585000,4.129585205078125,4.818330841064453,9.593865327453612,-5.1696799346923825
1790964443076598300,4.139598388671875,4.871901103210449,8.73434693145752,-5.205892234802246
1790964443086610200,4.149610107421875,4.011634519195557,8.290372161102294,-4.907065940093994
1790964443096623000,4.159623046875,2.9200281997680664,8.96359174041748,-4.118625405883789
1790964443106635000,4.169635009765625,1.8339584716796873,10.005518375396727,-3.305195391845703
1790964443116647000,4.17964697265625,1.0140940406799315,10.547206501007079,-3.1597476409912106
1790964443126660000,4.18966015625,0.2539350135803223,10.702679971313476,-3.0181904678344726
1790964443136672000,4.199672119140625,-0.40940848388671874,9.996091206359862,-2.8574796813964842
1790964443146684200,4.20968408203125,-0.8672995513916015,9.073874654388428,-2.5387515853881832
1790964443156697000,4.219697021484375,-1.2286743644714355,8.109460298156737,-2.627935597229004
1790964443166709200,4.229709228515625,-1.6383821235656737,7.807341976165771,-2.8336873023986815
1790964443176722200,4.23972216796875,-1.7536030784606933,8.318204755401611,-3.189076611328125
1790964443186734000,4.249734130859375,-1.4356231704711913,8.57453397064209,-4.001309524536133
1790964443196746000,4.25974609375,-0.4191349281311035,8.53607710647583,-4.351910430145264
1790964443206759200,4.26975927734375,1.4818611900329588,8.227674005126953,-4.582801252746582
1790964443216771000,4.27977099609375,2.7632079910278318,7.651419593048095,-4.818929391479492
1790964443226784000,4.289783935546875,3.395726142120361,7.2432082099914545,-5.102941563415527
1790964443236796200,4.299796142578125,3.4873043556213377,6.936900035095214,-5.577143129730224
1790964443246808000,4.30980810546875,3.201795807647705,6.842927619934081,-5.732766237640381
1790964443256821200,4.3198212890625,3.160795104217529,7.144746666717529,-5.483021076965332
1790964443266833200,4.329833251953125,3.0337527786254883,7.378031690979004,-5.154716174316406
1790964443276845300,4.33984521484375,2.43265852432251,7.402721895599365,-4.912153618621826
1790964443286858000,4.34985791015625,1.7878700897216795,7.215076340484619,-5.117755686187744
1790964443296870000,4.359869873046875,1.3102268585205077,6.594229922485352,-5.5349453254699705
1790964443306883000,4.369883056640625,0.8936357696533203,6.436212612915039,-5.572354726409912
1790964443316895000,4.37989501953125,0.7835024932861328,7.068730764007568,-5.4321442916870115
1790964443326907100,4.3899072265625,0.8349778289794921,7.788188362884521,-5.819107135009765
1790964443336920000,4.399920166015625,1.1465233200073242,8.182333811187744,-6.264877556610107
1790964443346932200,4.40993212890625,1.7010802795410156,7.949348062133788,-6.3429883857727045
1790964443356945200,4.419945068359375,2.292747364807129,7.498938874816894,-6.134243928527832
1790964443366957300,4.429957275390625,2.8624177223205565,7.681347113800048,-5.852326683044433
1790964443376969500,4.439969482421875,2.8489503379821777,8.430732233428955,-5.843348426818848
1790964443386982400,4.449982421875,2.6467899353027344,8.875155916595459,-6.153547179412842
1790964443396994600,4.45999462890625,2.5098715278625487,9.099313047027588,-6.008398703765868
1790964443407006500,4.47000634765625,2.5549124465942383,9.389609998321532,-5.651662656402587
1790964443417019600,4.48001953125,2.601599378967285,9.291597367858886,-5.370044686126708
1790964443427031600,4.490031494140625,2.5043349365234375,8.822483480072021,-5.135712198638916
1790964443437044700,4.500044677734375,2.3861212295532224,8.340051845550537,-5.0656818000793455
1790964443447056600,4.510056640625,2.047491332244873,7.764096708679198,-5.486462741851806
1790964443457068500,4.520068603515625,1.14278237991333,6.630142947387695,-6.450278547668456
1790964443467081500,4.53008154296875,0.1044470474243164,6.269815597534179,-7.351396197509765
1790964443477093400,4.54009326171875,0.1500865165710449,6.695534580230713,-6.653336775970459
1790964443487106600,4.5501064453125,0.6552630668640136,8.131756301116942,-4.73722725982666
1790964443497118500,4.560118408203125,1.0471639511108397,9.017610915374755,-3.0047230834960934
1790964443507130600,4.570130615234375,1.4021043472290038,8.627804957580565,-2.2655133209228513
1790964443517143600,4.5801435546875,2.611774736022949,6.330867739868164,-4.070142822265625
1790964443527155700,4.59015576171875,2.442833881378174,6.226869605255127,-4.578910675048828
1790964443537167600,4.600167724609375,0.5780500633239746,8.732700917816162,-3.3246482803344724
1790964443547180500,4.6101806640625,0.24181436767578124,9.570521861267089,-3.270030554962158
1790964443557192400,4.6201923828125,1.0871171913146973,9.68499462814331,-3.3324294357299804
1790964443567205600,4.63020556640625,1.4891934326171874,9.250596664428711,-3.68362889175415
1790964443577217500,4.640217529296875,1.6807295654296874,8.856151940917968,-4.20721086730957
1790964443587229400,4.6502294921875,1.6989853530883787,9.230096312713622,-4.2043677528381345
1790964443597242600,4.66024267578125,0.6066308456420898,9.388562535095215,-3.6668694801330566
1790964443607254500,4.670254638671875,-0.11297639083862304,8.81709652633667,-3.6336499320983884
1790964443617267700,4.680267822265625,1.583914035797119,8.643516905975341,-5.444863488006591
1790964443627279600,4.690279541015625,3.294421484375,8.425345279693603,-10.009408953094482
1790964443637291800,4.700291748046875,-1.824680940246582,8.028655992126465,-6.2761003768920895
1790964443647304400,4.710304443359375,0.3525461944580078,7.204302433013916,-4.831349312591552
1790964443657316400,4.72031640625,2.484133860015869,7.51405227279663,-4.2868180725097655
1790964443667329500,4.73032958984375,1.1806406936645508,7.238419806671142,-4.2986394432067865
1790964443677341400,4.740341552734375,0.02079962692260742,6.561608924865722,-4.834790977478027
1790964443687353600,4.750353515625,0.3896563201904297,6.309768837738036,-4.995052851104736
1790964443697366500,4.760366455078125,0.838269856262207,6.662614307403564,-4.63502477645874
1790964443707378700,4.770378662109375,0.6423942329406738,6.985831531524658,-4.220827889251709
1790964443717390600,4.780390625,0.3506009056091308,7.628674677276611,-3.96464831161499
1790964443727403500,4.790403564453125,-0.015263035583496093,8.397662322998046,-3.782090435028076
1790964443737415700,4.800415771484375,-0.1031003089904785,8.65758284072876,-3.465457265472412
1790964443747428600,4.8104287109375,-0.16295535049438475,8.514080378723143,-3.04527487411499
1790964443757440500,4.8204404296875,-0.5168482833862305,8.220940312957763,-2.553116795349121
1790964443767452400,4.830452392578125,-1.335515613555908,8.699331732177734,-2.4072201316833493
1790964443777465600,4.840465576171875,-1.6237176383972167,9.482534950256348,-3.2309751403808593
1790964443787477500,4.8504775390625,-1.8498200576782224,9.721206928253173,-3.756053491973877
1790964443797490700,4.86049072265625,-2.9180829109191895,9.74185691757202,-3.546560846710205
1790964443807502600,4.870502685546875,-3.631255730438232,9.810540577697754,-3.1202433135986327
1790964443817514800,4.8805146484375,-3.4247558372497555,9.973795203399657,-2.6870424507141113
1790964443827527400,4.89052734375,-2.6925790420532225,10.373028330230712,-2.424877368927002
1790964443837539600,4.90053955078125,-1.9259855979919434,10.645219131469727,-2.563441790008545
1790964443847552500,4.910552490234375,-1.6647183418273925,10.568455040740966,-3.010708587646484
1790964443857564400,4.920564453125,-1.0735001693725585,10.504110871124267,-3.674800273132324
1790964443867576600,4.93057666015625,-0.49155952835083006,10.848576634979247,-4.1748891448974605
1790964443877589500,4.940589599609375,-0.5784989761352539,10.57878003540039,-4.562300901031493
1790964443887601700,4.9506015625,-0.728435855102539,10.380061297607421,-4.278737641906738
1790964443897614600,4.960614501953125,-0.08783727340698241,9.849147079467773,-3.393631215667724
1790964443907626800,4.970626708984375,0.5048772750854492,8.59892490005493,-2.964171292877197
1790964443917638700,4.980638671875,1.7055694076538086,7.699153988647461,-3.486406529998779
1790964443927651600,4.990651611328125,2.221819140625,8.087762845611572,-4.562450538635254
1790964443937663500,5.00066357421875,2.4806921951293943,9.830741654205323,-5.2636523498535155
1790964443947675400,5.01067529296875,2.01756381149292,10.92354507446289,-5.706579656982422
1790964443957688600,5.0206884765625,0.7246949150085449,11.053131239318848,-5.397727642822265
1790964443967700500,5.030700439453125,0.05566518859863281,10.92324579925537,-4.211849633026123
1790964443977713700,5.040713623046875,0.16519991455078123,11.04415298309326,-2.9782372276306153
1790964443987725600,5.0507255859375,-0.527322915649414,11.21713405303955,-2.1417630226135254
1790964443997737700,5.06073779296875,-1.409137314605713,11.370961509704589,-0.974888988494873
1790964444007750400,5.07075048828125,-2.0841525451660154,10.79590419845581,0.4261678955078125
1790964444017762600,5.080762451171875,-3.0660745010375976,10.165630611419678,0.6215946060180664
1790964444027775500,5.090775390625,-2.3808839134216306,9.619752632904053,-0.036361937713623046
1790964444037787600,5.10078759765625,-1.227028350830078,9.266757525634764,-0.5817910034179687
1790964444047799600,5.110799560546875,-0.21158757171630857,8.731054904174805,-1.2195464706420898
1790964444057812500,5.1208125,-0.12240355987548827,7.445368612670898,-2.110638401031494
1790964444067824600,5.13082470703125,-0.5301660301208496,6.181230136108398,-2.869001776885986
1790964444077837600,5.140837646484375,-0.48991351470947264,4.493766878509521,-4.121468520355224
1790964444087849700,5.150849609375,0.4327519500732422,3.17935016708374,-5.358073677825927
1790964444097861600,5.160861572265625,0.7812579292297362,3.033154228210449,-5.936123741149902
1790964444107874600,5.17087451171875,1.0322001907348632,3.821744400024414,-5.917867953491211
1790964444117886500,5.180886474609375,1.4321815055847167,5.184942970275879,-4.987870246124268
1790964444127899600,5.190899658203125,0.872087954711914,7.315932085418701,-4.337395582580566
1790964444137911600,5.20091162109375,-0.8611644096374511,9.460388584899901,-4.279336192321777
1790964444147924700,5.2109248046875,-2.577806999969482,10.835707801055907,-4.7387236358642575
1790964444157936600,5.2209365234375,-2.37489840927124,11.916240937805176,-5.347000495147705
1790964444167948500,5.230948486328125,-1.8701707717895506,12.797756061553955,-5.332635285186767
1790964444177961500,5.24096142578125,-1.6350900962829589,12.407501190948485,-5.121197351074218
1790964444187973400,5.250973388671875,-1.260846449279785,11.571026985931395,-5.061940859985351
1790964444197985500,5.260985595703125,-1.572541577911377,10.701632508087158,-4.770147532653809
1790964444207998500,5.27099853515625,-2.358587910461426,9.945513696289062,-3.7743092796325683
1790964444218010600,5.2810107421875,-2.4115596221923825,8.98888049545288,-2.8924948806762694
1790964444228023600,5.2910234375,-1.987337015533447,8.199093222808838,-2.5405472366333006
1790964444238035500,5.301035400390625,-0.2289455337524414,7.91672706451416,-2.5763106239318847
1790964444248047600,5.311047607421875,2.8923452430725094,9.358036463928222,-3.075202394866943
1790964444258060500,5.321060546875,3.9413048454284665,10.561122798156738,-3.56885684967041
1790964444268072700,5.33107275390625,2.1220108589172364,10.172364303588866,-3.565564822387695
1790964444278085400,5.34108544921875,-0.42018239135742186,10.041581037902832,-3.2640450508117675
1790964444288097500,5.35109765625,-1.279401512145996,10.86578495941162,-3.660285425567627
1790964444298109400,5.361109375,-0.964713631439209,10.091260722351073,-4.077475064849853
1790964444308122600,5.37112255859375,-0.33414076919555663,9.355791899871825,-3.4579753852844237
1790964444318134500,5.381134521484375,-0.6334159767150879,9.51201355819702,-2.9218238510131833
1790964444328147700,5.391147705078125,-1.4393641105651855,9.948955361175537,-2.2680571601867676
1790964444338159600,5.40115966796875,-1.8460791175842284,11.30616842727661,-1.0449193870544433
1790964444348172500,5.411172607421875,-2.653373989868164,10.740687922668457,0.15158289260864258
1790964444358184700,5.421184814453125,-2.155380044555664,10.952724407196044,1.6829741294860838
1790964444368196600,5.431196533203125,-0.5948094749450683,10.988936707305907,0.8099883491516113
1790964444378208800,5.441208740234375,2.4040777420043944,9.04020619354248,-0.04369418029785156
1790964444388221000,5.451220947265625,3.9782653335571285,4.761318914031982,-1.4000094207763671
1790964444398233900,5.46123388671875,0.8783727340698242,2.0115783073425293,-3.7933132553100584
1790964444408246000,5.47124609375,0.22310966720581055,3.3111808959960936,-2.861370259094238
1790964444418258000,5.4812578125,1.341950030517578,6.320692382812499,-2.140117008972168
1790964444428270800,5.491270751953125,1.5930419296264648,7.876923461914062,-3.0741549316406247
1790964444438283000,5.501282958984375,1.0730512565612793,8.02461577682495,-3.969735990142822
1790964444448296000,5.5112958984375,0.4364928901672363,8.796296899414061,-4.742464575958252
1790964444458308000,5.52130810546875,-0.6024409927368164,10.014047718811035,-4.657769692230224
1790964444468320000,5.531320068359375,-0.41374797439575195,10.848875910186766,-5.19018028640747
1790964444478333000,5.5413330078125,0.745045629119873,10.940603761291504,-5.205293684387207
1790964444488344800,5.5513447265625,1.6584335624694824,10.180594371795653,-4.873547116851807
1790964444498358000,5.56135791015625,0.8104372619628906,9.198522778320312,-3.980809172821045
1790964444508370000,5.571369873046875,-0.735468822479248,7.803750673675537,-3.0445266860961913
1790964444518381800,5.5813818359375,-1.4417583122253417,6.516867281341552,-2.390311082458496
1790964444528395000,5.59139501953125,-0.9189245246887207,4.6264954330444334,-1.8505682456970214
1790964444538407000,5.601406982421875,1.5562310791015623,5.419275457763671,-1.2713210815429687
1790964444548419800,5.611419921875,2.512714642333984,9.86351228942871,-1.1035773277282714
1790964444558431700,5.621431640625,1.4591162742614745,14.840159715270996,-1.6117466300964354
1790964444568444000,5.63144384765625,-1.2406453727722166,16.660201889801023,-2.324470536804199
1790964444578456800,5.641456787109375,-2.77727392578125,15.55856985092163,-2.5212439857482907
1790964444588469000,5.651468994140625,-2.5698762069702146,13.709497981262206,-2.3632266761779785
1790964444598482000,5.66148193359375,-2.0554221252441405,11.110143166351317,-2.1269488998413086
1790964444608494000,5.671494140625,-0.8919897560119628,9.166649968719481,-1.2087725631713866
1790964444618506000,5.681506103515625,-0.46103345718383787,8.351424303436279,-0.8053495834350586
1790964444628519000,5.691518798828125,-0.8635586112976074,7.059153957366943,-1.6255132896423339
1790964444638531000,5.701531005859375,-0.8366238426208495,5.140201326751709,-2.7838579803466796
1790964444648543700,5.711543701171875,0.37409400939941406,5.264699813079834,-3.5681086616516113
1790964444658556000,5.721555908203125,2.201169151306152,8.01294404373169,-3.5048119552612302
1790964444668567800,5.73156787109375,2.636165665435791,10.26035121459961,-3.2460885383605955
1790964444678581000,5.7415810546875,1.7055694076538086,10.067019430541992,-3.434033368682861
1790964444688593000,5.751593017578125,0.565630142211914,9.362824867248534,-2.8655601119995118
1790964444698606000,5.761606201171875,0.3479074287414551,9.11697028427124,-2.368015079498291
1790964444708618000,5.771617919921875,0.17073650588989256,8.90613090057373,-2.507178050994873
1790964444718631000,5.781630859375,-0.36317046432495115,9.670180505371093,-2.5754127983093262
1790964444728642800,5.791642822265625,-1.2497732666015624,11.016619664001464,-2.1474492515563965
1790964444738655000,5.801655029296875,-2.0732290000915525,11.87434240875244,-1.4499883804321287
1790964444748668000,5.81166796875,-2.654421453094482,10.909628777313232,0.17821838607788085
1790964444758679800,5.8216796875,-4.42448466796875,7.198017653656006,1.6802806526184082
1790964444768693000,5.83169287109375,-3.8271313537597655,4.2886137237548825,2.5363573837280273
1790964444778705000,5.841704833984375,-2.258629991149902,3.775057467651367,1.6632219657897949
1790964444788717000,5.851717041015625,-0.651821401977539,5.116708222961425,-1.2173019065856934
1790964444798730000,5.86172998046875,2.0958242782592773,8.084321180725096,-3.8242882392883297
1790964444808742100,5.8717421875,4.169951103973388,11.922824992370606,-4.853495677947998
1790964444818754800,5.8817548828125,4.211699995422363,15.781529880523681,-4.2785880043029785
1790964444828766700,5.8917666015625,3.024475247192383,18.328661171722413,-2.4531588760375973
1790964444838779000,5.90177880859375,0.1657984649658203,16.716914541625975,0.1253963119506836
1790964444848791800,5.911791748046875,-1.801636749267578,13.047800497436523,2.5757120735168457
1790964444858804000,5.921803955078125,-1.882740330505371,11.25559091720581,3.778648770141601
1790964444868817000,5.93181689453125,-2.6458921096801755,10.522665933990478,3.589207563781738
1790964444878829000,5.9418291015625,-2.1715409057617188,9.98486838607788,2.480542557525635
1790964444888841000,5.951841064453125,-1.0238204849243164,9.662698625183104,1.1417349166870117
1790964444898854100,5.961854248046875,-1.6322469818115233,9.824756150054931,-0.2832639839172363
1790964444908866000,5.971865966796875,-1.4767735115051268,9.93294413757324,-1.2144587921142578
1790964444918879000,5.98187890625,-0.9085995300292968,10.101436079406737,-1.3329717742919922
1790964444928891000,5.991890869140625,-1.6356886466979979,10.238953037261963,-1.2716203567504882
1790964444938902800,6.00190283203125,-2.5047838493347165,10.308384885406493,-0.4091092086791992
1790964444948916000,6.011916015625,-2.2282535575866698,11.029488497924804,0.6700771896362304
1790964444958928000,6.021927978515625,-0.7736264114379883,11.179275739288329,2.2827216453552244
1790964444968941000,6.031941162109375,0.4495113616943359,11.509077017974853,1.834856297302246
1790964444978953000,6.041952880859375,0.35883097381591794,11.764807682800292,0.17417817077636719
1790964444988965000,6.051965087890625,0.6169558403015136,11.264269898223876,-0.6239888076782226
1790964444998977800,6.061977783203125,2.018910549926758,10.321702632141113,-0.9626187049865722
1790964445008990000,6.071989990234375,2.724900764465332,9.613168578338623,-1.3730746520996093
1790964445019003000,6.0820029296875,2.280626718902588,9.254636879730224,-2.064849294281006
1790964445029014800,6.092014892578125,1.4449007019042968,9.258976370239257,-2.074276463317871
1790964445039028000,6.102028076171875,0.6696282768249512,9.31479119644165,-1.7923592178344725
1790964445049040000,6.112039794921875,-0.11851298217773437,9.342773428344726,-1.9316718269348143
1790964445059052000,6.122052001953125,-0.6024409927368164,9.018059828186034,-2.250399922943115
1790964445069065000,6.13206494140625,-1.5387234794616698,7.804947774505615,-3.0807389862060544
1790964445079077000,6.1420771484375,-2.9646202056884765,5.7511716629028315,-3.7743092796325683
1790964445089089800,6.15208984375,-3.3301848716735836,6.541557485961913,-2.9975404785156248
1790964445099102000,6.16210205078125,-2.943670941162109,9.650278704071045,-1.7986439971923827
1790964445109113900,6.17211376953125,-0.27129297561645505,11.643152310943602,-0.840813695526123
1790964445119127000,6.182126953125,3.982006273651123,12.057947748565674,0.09935936889648436
1790964445129139000,6.192138916015625,7.75062932434082,12.386402288818358,1.5789759948730469
1790964445139152100,6.202152099609375,9.153631497192382,8.213458432769775,1.0518027168273925
1790964445149164000,6.2121640625,1.0085574493408203,6.554575957489013,1.1339537612915038
1790964445159176000,6.222176025390625,-7.595305491638183,7.740603604888916,1.599925259399414
1790964445169188900,6.23218896484375,-7.614608742523193,10.85306576309204,-1.017685343170166
1790964445179200800,6.24220068359375,-1.7230770072937012,10.56546228866577,-3.5455133834838866
1790964445189214000,6.2522138671875,0.18106150054931638,10.274417149353027,-2.402282090759277
1790964445199225900,6.262225830078125,1.018882444000244,8.775048359680175,-1.0842740768432617
1790964445209238000,6.272238037109375,1.5058032066345215,8.072350172424317,0.9757868141174316
1790964445219251000,6.2822509765625,1.294814185333252,8.40783768005371,1.6949451377868652
1790964445229262800,6.292262939453125,0.2642600082397461,9.535057749176024,0.6486790122985839
1790964445239276000,6.302276123046875,-0.8011597305297851,10.172364303588866,-0.9394248764038086
1790964445249288000,6.312287841796875,-0.6364087287902832,10.734552780914306,-1.413476805114746
1790964445259300900,6.32230078125,0.40985739669799803,10.236259560394286,-0.86191259765625
1790964445269312800,6.332312744140625,1.0428244606018067,10.24149687652588,-1.6283564041137695
1790964445279325000,6.342324951171875,0.8780734588623046,9.902567704010009,-1.7558476425170897
1790964445289337900,6.352337890625,0.9587281272888183,8.787169005584717,-1.6289549545288085
1790964445299350000,6.36235009765625,0.6420949577331543,9.032873950958251,-2.1537340309143067
1790964445309363000,6.372363037109375,1.3488333602905274,8.517671681213379,-2.4389433036804196
1790964445319375000,6.382375,1.6641197914123533,10.001029247283935,-1.8567033874511718
1790964445329387000,6.392386962890625,2.3145944549560546,11.130194605255125,-0.11731588134765625
1790964445339400000,6.40239990234375,3.609707915496826,9.913940161895752,-0.7917325614929199
1790964445349411800,6.412411865234375,2.976441576385498,9.150938020324707,-0.5660790550231933
1790964445359424800,6.4224248046875,1.4085387641906737,9.559448678588867,-0.39534254913330075
1790964445369437000,6.43243701171875,-0.18884265594482422,8.743624462890624,-2.0492869834899903
1790964445379448800,6.44244873046875,-1.3069348312377929,8.332420327758788,-2.91119958114624
1790964445389461800,6.452461669921875,-1.3207014907836914,9.89508582382202,-1.7845780624389647
1790964445399474000,6.462473876953125,0.11267711563110351,10.978312437438964,-0.3128922294616699
1790964445409486800,6.47248681640625,1.975964557647705,10.473285524749755,0.14215572357177733
1790964445419499000,6.4824990234375,2.7703905960083004,9.18685104522705,-0.5624877525329589
1790964445429511000,6.492510986328125,2.8419173706054686,8.81604906311035,-1.6792331893920898
1790964445439523800,6.50252392578125,1.815104133605957,9.297882147216797,-2.01756381149292
1790964445449535700,6.51253564453125,0.9759364517211914,10.040683212280273,-1.6799813774108885
1790964445459549000,6.522548828125,0.8674491889953613,10.180893647003174,-1.5723919403076172
1790964445469560800,6.532560791015625,2.0988170303344726,10.000729972076416,-0.06973112335205078
1790964445479574000,6.542573974609375,4.381837950897217,9.527276593780517,1.0723030685424804
1790964445489586000,6.5525859375,2.318036119842529,10.522366658782959,1.4284405654907226
1790964445499597800,6.562597900390625,1.1679214973449705,10.396371796417236,0.9798270294189453
1790964445509611000,6.572611083984375,-0.21697452545166016,9.849446354675292,-0.7172130348205566
1790964445519623000,6.582622802734375,-1.1378443389892579,9.352799147796631,-2.3127988037109373
1790964445529635800,6.5926357421875,-2.516156307220459,9.382577030944823,-2.8917466926574704
1790964445539647700,6.602647705078125,-4.138227931976318,9.132083682250975,-3.591601765441894
1790964445549660000,6.612659912109375,0.6708253776550293,8.574833245849609,-3.8799534278869627
1790964445559672800,6.6226728515625,4.437503139495849,9.144353965759278,-0.32127193527221676
1790964445569684700,6.632684814453125,4.0541315986633295,11.199925728607177,5.016899941253662
1790964445579698000,6.642697998046875,0.8219593574523926,10.365995362854003,1.3913304397583006
1790964445589709800,6.652709716796875,0.8991723609924316,9.501987838745116,0.11701660614013672
1790964445599722000,6.662721923828125,1.852663172149658,9.989956064605712,-0.5264250900268554
1790964445609734700,6.672734619140625,2.3980922378540037,10.04936219329834,-2.5184008712768553
1790964445619746800,6.682746826171875,2.799569928741455,9.705943892669676,-3.351134136199951
1790964445629759700,6.692759765625,2.9376854370117185,9.751433724212646,-2.1059996353149413
1790964445639772000,6.70277197265625,2.264016944885254,10.225784928131104,-1.1088146438598632
1790964445649783800,6.71278369140625,2.084601457977295,9.070133714294434,-1.791461392211914
1790964445659797000,6.722796875,1.7904139289855956,9.005490269470215,0.14963760375976562
1790964445669809000,6.732808837890625,1.4764742362976073,10.225186377716064,0.6343138023376464
1790964445679822000,6.742822021484375,2.113780790710449,9.8311905670166,-0.4246715194702148
1790964445689834000,6.752833984375,3.5978865447998043,9.225607184600829,-0.6631938598632812
1790964445699846700,6.7628466796875,4.713883793640137,9.07148045272827,-0.5820902786254882
1790964445709858800,6.77285888671875,4.768202243804931,8.52246008453369,-0.8774749084472656
1790964445719870700,6.78287060546875,3.0015806938171385,9.081206896972656,-0.8806172981262207
1790964445729884000,6.7928837890625,0.14454992523193358,9.013570700073242,-0.6593032821655274
1790964445739895800,6.802895751953125,-1.805527326965332,9.096918845367432,-0.7223007133483886
1790964445749909000,6.812908935546875,-2.2307973968505856,9.376292251586914,-1.5209166046142577
1790964445759921000,6.8229208984375,-2.2979846809387205,10.018237571716307,-0.5868786819458007
1790964445769932800,6.832932861328125,-2.1302409271240235,11.133785907745361,0.7068880401611328
1790964445779945700,6.84294580078125,-1.46839380569458,10.488249285125733,0.7549217109680175
1790964445789958000,6.8529580078125,-1.488295606994629,9.102904349517821,-0.29718028106689454
1790964445799970800,6.862970703125,0.5268740028381347,10.894066466522217,-0.48018707046508785
1790964445809982700,6.872982666015625,-1.1074679054260252,9.53834977645874,1.0001777435302734
1790964445819995000,6.882994873046875,-2.1390695457458495,8.263138117218016,0.9021651130676269
1790964445830007800,6.8930078125,-1.6901567344665527,8.284386656951904,0.2780266677856445
1790964445840020000,6.90302001953125,0.03007715835571289,8.42773948135376,0.4299088356018066
1790964445850033000,6.913032958984375,1.6632219657897949,8.103474794006347,0.8219593574523926
1790964445860045000,6.923045166015625,2.126350349426269,8.006060713958739,0.7495347572326659
1790964445870057000,6.933056884765625,2.0751742889404294,8.346635900115967,-0.6169558403015136
1790964445880069600,6.943069580078125,3.164236769104004,9.033023588562012,-1.8148048583984373
1790964445890081800,6.953081787109375,4.432415460968017,9.86411083984375,-2.46423205871582
1790964445900094700,6.9630947265625,4.537760334014893,10.152163227081298,-2.605190681457519
1790964445910107000,6.97310693359375,4.521449835205078,10.245836367034912,-1.7133505630493162
1790964445920119800,6.983119873046875,4.271555036926269,9.830891291809081,-1.4395137481689453
1790964445930132000,6.993132080078125,4.516661431884765,9.437793306732177,-0.8044517578125
1790964445940143900,7.003143798828125,4.329764064788818,9.273341580200194,-0.7445967163085937
1790964445950156800,7.01315673828125,3.725976333618164,9.584438158416747,-0.232387198638916
1790964445960169000,7.0231689453125,2.69407541809082,9.83822353439331,-1.0155904167175291
1790964445970182000,7.033181884765625,1.6608277641296385,9.351901322174072,-2.2656629585266113
1790964445980193800,7.04319384765625,3.2139164535522458,8.450035484313965,-0.7911340110778808
1790964445990205700,7.053205810546875,5.027673848724365,8.615833949279784,-0.8116343627929687
1790964446000219000,7.063218994140625,6.005256314086914,9.630376902770996,-1.7022773803710936
1790964446010230800,7.073230712890625,3.669862232208252,9.856030409240722,-1.1713631622314453
1790964446020244000,7.083243896484375,0.8728361427307129,8.921693211364746,-1.0301052642822266
1790964446030255900,7.093255859375,1.294664547729492,9.083301823425293,-1.267280866241455
1790964446040268000,7.10326806640625,1.7881693649291992,9.394248764038085,-1.177199028778076
1790964446050280700,7.11328076171875,2.214037985229492,9.3331966217041,-0.8613140472412109
1790964446060292900,7.12329296875,2.3804350006103516,9.395445864868163,-1.3313257606506348
1790964446070305800,7.133305908203125,1.7553987297058105,9.823708686828613,-1.8302175315856932
1790964446080317700,7.143317626953125,1.4443021514892578,10.497077903747558,-2.0247464164733886
1790964446090331000,7.153330810546875,1.259050798034668,10.268132369995117,-1.9678841270446776
1790964446100342800,7.1633427734375,1.3916297149658203,9.93354268798828,-1.455674609375
1790964446110355000,7.17335498046875,0.7321767951965331,10.554538743591309,-1.4148235435485839
1790964446120367900,7.183367919921875,0.8345289161682128,10.225336015319824,-1.4963760375976562
1790964446130380000,7.193380126953125,1.2041337974548338,9.609128363037108,-1.1686696853637695
1790964446140392700,7.203392822265625,1.6469114669799805,8.862735995483398,-1.189918225097656
1790964446150404900,7.21340478515625,1.574935779571533,8.245929792785644,-1.253214931488037
1790964446160416800,7.223416748046875,1.6431705268859862,8.29321527557373,-1.2463316017150878
1790964446170430000,7.233429931640625,1.4538789581298828,9.044396046447753,-1.1324573852539062
1790964446180441900,7.24344189453125,0.914884309387207,9.70504606704712,-1.2307692909240722
1790964446190455000,7.253455078125,0.6655880615234374,10.314220751953124,-1.6367361099243163
1790964446200467000,7.263467041015625,0.8043021202087401,10.683077445220947,-1.9232921211242675
1790964446210478800,7.273478759765625,1.253963119506836,10.907982763671875,-2.2656629585266113
1790964446220491800,7.28349169921875,1.4823101028442383,10.555885482025145,-2.1672014152526855
1790964446230503700,7.293503662109375,2.2192753013610838,9.400982456207275,-1.89620771484375
1790964446240516900,7.303516845703125,2.929156093597412,9.43539910507202,-2.313546991729736
1790964446250528800,7.31352880859375,2.995595189666748,9.734375037384032,-3.044676323699951
1790964446260541000,7.323541015625,3.318513138580322,9.562441430664062,-3.3590649291992185
1790964446270553900,7.333553955078125,4.123114533996582,9.073126466369628,-3.140294752502441
1790964446280565800,7.343565673828125,4.32811805114746,8.487744160461425,-2.941276739501953
1790964446290579000,7.353578857421875,4.427776695251465,7.716960863494872,-2.7843068931579587
1790964446300590800,7.3635908203125,4.566191478729248,7.222109307861328,-2.7913398605346678
1790964446310603800,7.373603759765625,4.883572836303711,7.3846157455444335,-2.7443536529541013
1790964446320615700,7.38361572265625,4.346673114013671,8.43387462310791,-2.6376620414733885
1790964446330627800,7.3936279296875,3.1853356712341307,9.639355158996581,-2.861519896697998
1790964446340640800,7.403640869140625,2.1914427070617672,10.411784469604491,-2.558653386688232
1790964446350653000,7.41365283203125,0.9814730430603027,10.599430024719238,-1.732803451538086
1790964446360665900,7.423665771484375,-2.1136311531066894,10.566659389495848,-0.3892074073791504
1790964446370678000,7.433677978515625,-3.925143984222412,9.975441217041014,0.9831190567016601
1790964446380690000,7.44368994140625,-3.989637791442871,9.447968663787842,1.7003320915222166
1790964446390702800,7.453702880859375,-2.2602760047912596,9.773430451965332,1.5070003074645995
1790964446400714800,7.46371484375,-0.7038952880859375,10.443507641601562,1.0420762725830077
1790964446410727700,7.473727783203125,1.7726070541381835,10.529100350952147,0.08843582382202148
1790964446420739800,7.48373974609375,3.6113539291381835,9.990105702209473,-0.7679401824951172
1790964446430751700,7.493751708984375,3.7599440696716306,8.897302281951903,-0.9080009796142577
1790964446440765000,7.503764892578125,3.914968627166748,8.042721926879882,-0.5725134719848632
1790964446450776800,7.51377685546875,4.373757520294189,7.982717247772216,-0.841412245941162
1790964446460790000,7.5237900390625,4.873696754455566,8.67658681640625,-0.5437830520629883
1790964446470802000,7.533802001953125,5.1900306488037105,9.875184022521973,-2.593518948364258
1790964446480814800,7.54381494140625,6.142174721527099,10.981454827117918,-4.310760089111328
1790964446490826800,7.55382666015625,6.514024166870117,10.819098027038574,-4.32213254699707
1790964446500838700,7.563838623046875,3.972429467010498,9.445873737335205,-3.762338271331787
1790964446510851800,7.573851806640625,1.843834553527832,9.188646696472167,-2.34946001663208
1790964446520863700,7.58386376953125,0.4531026641845703,9.93339305038452,-1.311872872161865
1790964446530877000,7.593876953125,-0.105344873046875,10.024522351074218,-0.651821401977539
1790964446540888800,7.603888916015625,0.06913257293701172,10.028562566375731,-0.5668272430419922
1790964446550901000,7.61390087890625,0.23687632675170897,10.404452227020263,-0.6498761131286621
1790964446560914000,7.623913818359375,0.34880525436401366,10.377816733551025,-0.8110358123779297
1790964446570925800,7.63392578125,0.4444236831665039,9.601197570037842,-1.3461398834228515
1790964446580938800,7.643938720703125,2.067393133544922,9.539846152496338,-1.3394061912536621
1790964446590951000,7.653950927734375,2.175880396270752,9.633369654846192,-1.3875894996643066
1790964446600962800,7.663962890625,0.8243535591125488,10.291924748992919,-0.8138789268493651
1790964446610975700,7.673975830078125,1.1786954048156737,11.234043102264403,-0.08664017257690429
1790964446620988000,7.68398779296875,1.6983868026733397,11.347917318725585,0.03965396499633789
1790964446631000800,7.694000732421875,1.6820763038635254,11.68939033050537,-0.2136824981689453
1790964446641013000,7.704012939453125,1.994519620513916,11.325022765350342,-0.3532943824768066
1790964446651025700,7.714025634765625,2.3301567657470703,10.377667095947265,-0.4572925170898437
1790964446661037800,7.724037841796875,2.867056488037109,9.979930345153807,-0.3290530906677246
1790964446671049700,7.7340498046875,6.555024870300293,7.400028418731689,-2.7289409797668456
1790964446681063000,7.74406298828125,2.190544881439209,8.928875816345215,-2.446275546264648
1790964446691074800,7.75407470703125,1.1586439659118652,11.19827971496582,-0.8349778289794921
1790964446701088000,7.764087890625,1.6086042404174803,9.970652813720703,0.18270751419067383
1790964446711100000,7.774099853515625,1.8044798637390136,8.993219985961913,0.07257423782348632
1790964446721111800,7.78411181640625,1.7007810043334959,8.244283779144286,-0.9277531433105468
1790964446731125000,7.794125,0.8476970252990722,7.276727033233642,-2.919429649353027
1790964446741137000,7.804136962890625,0.6166565650939941,6.011541093444824,-5.674257934570313
1790964446751149800,7.81414990234375,1.8990508293151855,6.275501826477051,-4.881477909851074
1790964446761161700,7.82416162109375,2.667439924621582,8.71444513015747,-1.53213942489624
1790964446771174000,7.834173828125,3.1597476409912106,9.831040929412842,0.15502455749511718
1790964446781186800,7.844186767578125,3.659537237548828,9.949254636383056,1.0917559570312498
1790964446791199000,7.854198974609375,4.105906209564209,9.603891046905517,1.2437877624511717
1790964446801212000,7.8642119140625,4.434660025024414,9.181164816284179,0.34925416717529295
1790964446811223800,7.874223876953125,3.9413048454284665,8.936656971740723,-1.5493477493286132
1790964446821236700,7.88423681640625,2.7247511268615723,8.930671467590331,-2.3675661666870114
1790964446831248600,7.89424853515625,1.9270330612182616,9.198073865509032,-1.7196353424072264
1790964446841260800,7.9042607421875,1.9333178405761717,9.364021968078612,-1.4571709854125976
1790964446851273700,7.914273681640625,2.461089669036865,9.405621221923827,-1.6864157943725584
1790964446861286000,7.924285888671875,2.8871079269409177,9.400383905792236,-1.789516103363037
1790964446871298800,7.934298828125,2.9219734886169433,9.357587551116943,-1.7426795333862304
1790964446881311000,7.94431103515625,2.8009166671752928,9.175927500152588,-1.793406681060791
1790964446891323000,7.954322998046875,2.7890952964782714,9.101108698272705,-1.9265841484069823
1790964446901336000,7.964336181640625,2.853289828491211,9.090185153198242,-1.9487305137634277
1790964446911348000,7.974347900390625,2.8191724548339843,9.183708655548095,-1.8969559028625487
1790964446921361000,7.98436083984375,2.750488794708252,9.254038329315184,-1.9506758026123046
1790964446931372800,7.994372802734375,2.769043857574463,9.223661895751952,-2.0884920356750487
1790964446941384700,8.004384765625,2.781014865875244,9.198223503112793,-2.118868469238281
1790964446951398000,8.01439794921875,2.7437551025390623,9.175927500152588,-2.1166239051818847
1790964446961409800,8.024409912109375,2.7829601547241207,9.113079706573485,-2.140565921783447
1790964446971423000,8.034423095703126,2.816030065155029,9.125200352478027,-2.0163667106628416
1790964446981435000,8.044434814453124,2.849099975585937,9.146299254608154,-1.9940707077026365
1790964446991447800,8.05444775390625,2.795529713439941,9.184307205963135,-2.1254525238037107
1790964447001459700,8.064459716796875,2.7129297561645505,9.205256470489502,-2.1857564781188965
1790964447011472000,8.074471923828124,2.7549779228210447,9.222614432525635,-2.1357775184631347
1790964447021484800,8.08448486328125,2.846107223510742,9.215132552337646,-2.0880431228637693
1790964447031496700,8.09449658203125,2.8471546867370603,9.152883309173584,-2.127846725463867
1790964447041510000,8.104510009765624,2.7685949447631835,9.115773183441162,-2.1154268043518063
1790964447051521800,8.114521728515625,2.5864859809875487,9.182062641906738,-2.07502465133667
1790964447061534000,8.124533935546875,2.503287473297119,9.243114784240722,-2.013972509002685
1790964447071547000,8.134546875,2.6830022354125975,9.285312588500975,-2.0028993263244628
1790964447081559000,8.14455908203125,2.83458512802124,9.233537977600097,-2.04943662109375
1790964447091571700,8.15457177734375,2.701258023071289,9.23802710571289,-2.0028993263244628
1790964447101584000,8.164583984375,2.489371176147461,9.21962168045044,-1.9577087699890137
1790964447111595800,8.174595703125,2.465578797149658,9.177872789001464,-1.9167080665588379
1790964447121608700,8.184608642578125,2.65591782913208,9.210643424224854,-1.9032406822204588
1790964447131620900,8.194620849609375,2.9014731369018554,9.175927500152588,-1.9702783287048338
1790964447141633800,8.2046337890625,2.895188357543945,9.264812236785888,-1.8972551780700682
1790964447151646000,8.21464599609375,2.6809073089599607,9.297283596801757,-1.854758098602295
1790964447161659000,8.224658935546875,2.4863784240722655,9.313444458007812,-1.8652327308654784
1790964447171671000,8.234671142578126,2.429815409851074,9.234286165618895,-1.8391957878112792
1790964447181683000,8.244682861328124,2.5876830818176266,9.20585502090454,-1.882740330505371
1790964447191696000,8.25469580078125,2.7268460533142087,9.185953219604492,-1.9547160179138183
1790964447201707800,8.264707763671876,2.68135622177124,9.221118056488036,-2.006490628814697
1790964447211721000,8.274720947265624,2.6013001037597654,9.277681070709228,-1.9636942741394041
1790964447221732900,8.28473291015625,2.5959131500244137,9.290549904632568,-2.0127754081726072
1790964447231744800,8.294744873046875,2.541594699859619,9.306411490631103,-1.9532196418762207
1790964447241758000,8.304758056640624,2.466925535583496,9.335590823364257,-1.9470845001220702
1790964447251769900,8.314769775390625,2.554313896179199,9.287257877349854,-1.955464205932617
1790964447261782800,8.32478271484375,2.688389189147949,9.215880740356445,-2.0675427711486813
1790964447271794700,8.334794677734376,2.718915260314941,9.194482563018799,-2.210745957946777
1790964447281806800,8.344806884765624,2.542941438293457,9.222614432525635,-2.149095265197754
1790964447291819800,8.35481982421875,2.3876176055908203,9.162909028625489,-2.2819734573364254
1790964447301832000,8.36483203125,2.3880665184020993,9.175179312133789,-2.13877027053833
1790964447311844900,8.374844970703125,2.5947160491943357,9.277681070709228,-1.9014450309753417
1790964447321856800,8.384856689453125,2.6599580444335937,9.21872385482788,-2.136824981689453
1790964447331870000,8.394869873046876,2.5067291381835934,9.274389043426513,-2.1609166358947753
1790964447341881900,8.4048818359375,2.505831312561035,9.294440482330321,-1.9978116477966308
1790964447351894000,8.41489404296875,2.642300807189941,9.241768045806884,-2.095973915863037
1790964447361906700,8.42490673828125,2.67492180480957,9.19268691177368,-2.0011036750793454
1790964447371918800,8.4349189453125,2.5567080978393553,9.146448892211913,-2.1062989105224608
1790964447381931800,8.444931884765625,2.7232547508239744,9.155726423645019,-2.1555296821594236
1790964447391943700,8.454943603515625,2.677016731262207,9.243414059448241,-2.142062297821045
1790964447401955800,8.464955810546876,2.750339157104492,9.202862268829346,-2.163610112762451
1790964447411968800,8.47496875,2.8893524909973145,9.242815509033203,-2.08130943069458
1790964447421980700,8.484980712890625,3.0336031410217283,9.147496355438232,-2.1487959899902345
1790964447431993600,8.49499365234375,3.1947628402709958,9.229797037506103,-2.1914427070617672
1790964447442005800,8.505005859375,2.9020716873168944,9.472808506011962,-1.9888333915710448
1790964447452017700,8.515017578125,2.166004314422607,9.251195214843749,-1.9119196632385254
1790964447462030600,8.525030517578125,1.8662801940917968,9.236231454467774,-1.919102268218994
1790964447472042800,8.535042724609376,2.3751976844787595,9.13612389755249,-2.1344307800292968
1790964447482055700,8.5450556640625,3.0232781463623044,9.221866244506835,-2.320729596710205
1790964447492067800,8.55506787109375,2.756025386047363,9.230096312713622,-2.17064308013916
1790964447502079700,8.565079833984376,1.9758149200439452,9.264961874389648,-1.9122189384460448
1790964447512093000,8.575093017578125,1.7923592178344725,9.000552228546143,-2.057217776489258
1790964447522104800,8.585104736328125,2.492812841033935,9.119663761138915,-2.445826633453369
1790964447532117800,8.59511767578125,2.946364418029785,9.23144305114746,-2.361580662536621
1790964447542129700,8.605129638671874,2.6173113273620605,9.267356076049804,-2.117072817993164
1790964447552142600,8.615142578125,2.3006781578063964,9.28920316619873,-2.250549560546875
1790964447562154800,8.62515478515625,2.3515549430847167,9.278429258728027,-2.3995886138916016
1790964447572166700,8.635166748046874,2.717568521881103,9.04020619354248,-2.4525603256225583
1790964447582179800,8.645179931640625,2.8763340194702147,9.143156864929198,-2.3300071281433103
1790964447592191700,8.655191650390625,2.576011348724365,9.121609049987793,-2.2469582580566403
1790964447602204700,8.66520458984375,2.311751340484619,9.160365189361572,-2.3274632888793945
1790964447612216800,8.675216796875,2.3982418754577637,9.260622383880614,-2.2590789039611816
1790964447622228700,8.685228759765625,2.674323254394531,9.318532136535644,-2.122160496520996
1790964447632241700,8.69524169921875,2.832041288757324,9.306860403442382,-2.076221752166748
1790964447642253600,8.705253662109374,2.6056395942687987,9.216030377960205,-2.274042664337158
1790964447652266800,8.715266845703125,2.2150854484558105,9.185055393981933,-2.2827216453552244
1790964447662278700,8.725278564453125,2.290652438354492,9.19986951675415,-2.0862474716186523
1790964447672290800,8.735290771484374,2.6439468208312986,9.18759923324585,-2.1583727966308595
1790964447682303700,8.7453037109375,2.828898899078369,9.197176039886473,-2.2073042930603024
1790964447692316000,8.75531591796875,2.6521768890380857,9.28905352859497,-2.098368117523193
1790964447702328600,8.76532861328125,2.449717211151123,9.329904594421386,-2.0370166999816894
1790964447712340700,8.7753408203125,2.449567573547363,9.27543650665283,-2.069637697601318
1790964447722353700,8.785353759765625,2.526930214691162,9.229348124694823,-2.064550019073486
1790964447732365600,8.795365478515626,2.4895208137512204,9.248501737976074,-2.0753239265441894
1790964447742377700,8.805377685546874,2.414103461456299,9.189095609283447,-2.130540202331543
1790964447752390700,8.815390625,2.5279776779174803,9.182810829925536,-2.1570260581970215
1790964447762402800,8.82540283203125,2.7130793937683104,9.251644127655029,-2.111386589050293
1790964447772415700,8.835415771484374,2.77083950881958,9.239074568939209,-2.1823148132324217
1790964447782428000,8.845427978515625,2.639457692718506,9.223362620544433,-2.2092495819091797
1790964447792439800,8.855439697265625,2.397942600250244,9.18685104522705,-2.1857564781188965
1790964447802452700,8.86545263671875,2.4314614234924314,9.181763366699219,-2.2390274650573727
1790964447812464600,8.875464599609375,2.5673323677062987,9.190143072509764,-2.2334908737182615
1790964447822477800,8.885477783203125,2.6645968101501465,9.21243907546997,-2.18979669342041
1790964447832489700,8.89548974609375,2.6862942626953124,9.23174232635498,-2.235136887359619
1790964447842503000,8.9055029296875,2.618807703399658,9.23159268875122,-2.245611519622803
1790964447852514800,8.915514892578125,2.6013001037597654,9.17981807785034,-2.2858640350341797
1790964447862526700,8.925526611328126,2.6337714637756346,9.177573513793945,-2.249801372528076
1790964447872539600,8.93553955078125,2.6783634696960448,9.159467363739013,-2.2569839775085447
1790964447882551600,8.945551513671875,2.675819630432129,9.17473039932251,-2.27913034286499
1790964447892564700,8.955564697265626,2.6595091316223143,9.180117353057861,-2.242918042755127
1790964447902576600,8.96557666015625,2.609829447174072,9.20630393371582,-2.1794716987609863
1790964447912588800,8.9755888671875,2.514809568786621,9.226056097412108,-2.1615151863098143
1790964447922601700,8.985601806640625,2.4842834976196286,9.209745598602295,-2.084451820373535
1790964447932613600,8.995613525390626,2.5106197158813477,9.234585440826416,-1.9994576614379882
1790964447942626800,9.005626708984375,2.508375151824951,9.204807557678222,-2.0310311958312988
1790964447952638700,9.015638671875,2.5092729774475098,9.234435803222656,-1.9879355659484863
1790964447962651000,9.02565087890625,2.5796026512145995,9.251644127655029,-1.8947113388061523
1790964447972663600,9.03566357421875,2.683451148223877,9.268253901672363,-1.866130556488037
1790964447982675700,9.04567578125,3.0080151107788082,9.06639277420044,-2.126350349426269
1790964447992688600,9.055688720703126,2.991106061553955,9.100659785461426,-2.4818892959594727
1790964448002700800,9.06570068359375,2.7275942413330077,9.262567672729492,-2.1877017669677734
1790964448012713700,9.075713623046875,2.958036151123047,9.14809490585327,-2.0362685119628905
1790964448022726000,9.085725830078125,2.4678233612060545,9.305064752197264,-2.1520880172729493
1790964448032737800,9.09573779296875,1.873163523864746,9.314940834045409,-1.8104653678894043
1790964448042750700,9.105750732421875,1.7821838607788085,9.118317022705078,-1.7911621170043943
1790964448052762600,9.1157626953125,2.7410616256713864,8.980650427246093,-2.3349451690673826
1790964448062775600,9.125775634765626,3.710563660430908,8.90657981338501,-2.66205297088623
1790964448072787700,9.13578759765625,3.844040402984619,8.890119676971436,-2.5616461387634275
1790964448082799600,9.145799560546875,3.774608554840088,8.889820401763915,-2.512116091918945
1790964448092812800,9.155812744140626,3.5506010620117183,8.922142124176025,-2.512116091918945
1790964448102824700,9.16582470703125,2.9563901374816894,9.058461981201171,-2.3765444229125974
1790964448112838000,9.175837890625,1.8634370796203612,9.124751439666747,-1.9788076721191405
1790964448122849800,9.185849853515625,1.2357073318481444,9.266009337615966,-1.2802993377685545
1790964448132861700,9.19586181640625,1.7284639610290526,9.293991569519042,-0.6437409713745117
1790964448142874600,9.20587451171875,2.734477571105957,8.962245001983643,-1.1445780311584473
1790964448152886500,9.215886474609375,3.2734722198486326,8.697536080932617,-1.9397522575378416
1790964448162899700,9.225899658203126,3.257460996246338,8.744223013305664,-2.0253449668884276
1790964448172911600,9.23591162109375,2.729838805389404,9.332747708892821,-1.399560507965088
1790964448182924800,9.2459248046875,1.726369034576416,10.059238275146484,-0.0992097312927246
1790964448192936700,9.255936767578126,0.6766612442016601,10.308534523010254,0.43245267486572264
1790964448202948900,9.265948974609374,1.0691606788635253,9.919626390838623,-0.2237082176208496
1790964448212961800,9.2759619140625,2.368015079498291,9.440037870788574,-1.050904891204834
1790964448222973700,9.2859736328125,3.3981203437805174,9.0014500541687,-1.6813281158447264
1790964448232986600,9.295986572265624,3.9797617095947264,8.625710031127928,-2.173037281799316
1790964448242998800,9.305998779296875,3.5543420021057126,8.301894256591796,-2.479644731903076
1790964448253010700,9.3160107421875,2.9308021072387693,8.550292678833006,-1.8043302261352538
1790964448263023600,9.326023681640624,2.373102758026123,9.37763899002075,-0.7978677032470702
1790964448273035800,9.336035888671875,2.872293804168701,10.170867927551269,-0.7122749938964843
1790964448283048700,9.346048583984375,3.848529531097412,10.282647217559814,-0.958877764892578
1790964448293060900,9.356060791015626,3.6789901260375975,10.134057077026366,-1.0685621284484863
1790964448303073500,9.366073486328125,2.675669992828369,9.781810157775878,-0.5779004257202148
1790964448313085700,9.376085693359375,1.4993687896728514,9.84465795135498,0.43619361495971676
1790964448323097600,9.38609765625,1.3233949676513672,9.645340663146973,0.8931868568420409
1790964448333110800,9.39611083984375,2.8101941986083983,9.189694159698485,-0.1349731185913086
1790964448343122700,9.406122802734375,4.07298593673706,9.056067779541015,-0.965910732269287
1790964448353135900,9.416135986328126,4.34113652267456,9.264512961578369,-1.0905588562011719
1790964448363147800,9.426147705078124,3.5013702903747554,9.417143317413329,-1.0603320602416992
1790964448373159700,9.43615966796875,2.9468133308410644,9.432555990600585,-0.5761047744750977
1790964448383172900,9.4461728515625,3.3077392311096188,9.530718258666992,-0.5541080467224121
1790964448393184800,9.456184814453126,3.8807016159057617,9.466374089050293,-0.9831190567016601
1790964448403197700,9.46619775390625,3.9489363632202146,9.277082520294188,-1.0283096130371092
1790964448413209600,9.476209716796875,3.4338837310791015,9.325714741516112,-0.9581295768737792
1790964448423222800,9.486222900390626,3.069665803527832,9.316137934875488,-0.8096890739440917
1790964448433234700,9.496234619140624,3.1051299156188965,9.335740460968017,-0.8457517364501953
1790964448443246800,9.506246826171875,2.9261633415222166,9.399186804962158,-0.8300397880554199
1790964448453259800,9.516259765625,2.525134563446045,9.520991814422606,-0.613514175415039
1790964448463271700,9.526271728515624,2.1088427497863766,9.605836335754393,-0.6025906303405761
1790964448473284600,9.53628466796875,1.8781015647888182,9.735123225402832,-0.6093243225097655
1790964448483296500,9.546296630859375,2.332700605010986,9.718363813781737,-0.5764040496826172
1790964448493308700,9.55630859375,3.3337761741638183,9.514258122253418,-0.6136638130187988
1790964448503321600,9.566321533203125,3.9490860008239745,9.47400560684204,-0.5208884986877441
1790964448513333800,9.576333740234375,4.06700043258667,9.362974504852295,-0.4252700698852539
1790964448523346700,9.5863466796875,3.9701849029541014,9.269151727294922,-0.6382043800354004
1790964448533358800,9.59635888671875,3.812017955780029,9.236979642486572,-0.847248112487793
1790964448543371800,9.606371826171875,3.896263926696777,9.391106374359131,-0.6021417175292968
1790964448553384000,9.616384033203126,3.9983167724609374,9.639953709411621,-0.4159925384521484
1790964448563395800,9.626395751953124,3.741837919616699,9.666589202880859,-0.397736750793457
1790964448573408800,9.63640869140625,3.384952234649658,9.28965207901001,-0.5163993705749511
1790964448583420700,9.646420654296875,2.514659931182861,7.963563634490966,-1.8403928886413574
1790964448593433600,9.65643359375,1.1303624588012695,7.4217258712768555,-2.6090812591552734
1790964448603445800,9.66644580078125,0.7426514274597168,9.521291089630127,-0.7436988906860351
1790964448613457700,9.676457763671875,1.8248305778503418,9.524134204101562,-0.009277531433105468
1790964448623470800,9.686470947265626,3.430142790985107,9.236530729675293,-1.1438298431396483
1790964448633482800,9.696482666015624,3.9659950500488277,9.375693701171874,-1.0823287879943848
1790964448643495700,9.70649560546875,3.5218706420898434,9.373748412322998,-0.5304653053283691
1790964448653507600,9.716507568359376,2.672527603149414,9.377489352416992,-1.1839327209472656
1790964448663520800,9.726520751953124,2.4817396583557128,9.141810126495361,-1.50670103225708
1790964448673532700,9.73653271484375,2.7756279121398926,9.283965850067139,-0.9084498924255371
1790964448683544600,9.746544677734375,3.099593324279785,9.200019154357909,-1.1712135246276856
1790964448693557800,9.756557861328124,3.145532068634033,9.290100991821289,-1.2741641960144041
1790964448703569700,9.766569580078125,2.73881706161499,9.464578437805175,-0.9150339469909667
1790964448713582800,9.776582763671875,2.8411691825866696,9.286509689331055,-1.324741706085205
1790964448723594800,9.7865947265625,3.101987525939941,9.330503144836426,-1.2229881355285643
1790964448733607000,9.79660693359375,2.9960441024780273,9.24520971069336,-1.0959458099365234
1790964448743619600,9.80661962890625,2.812289125061035,9.243862972259521,-1.239897184753418
1790964448753631700,9.8166318359375,2.849997801208496,9.229797037506103,-1.124825867462158
1790964448763644700,9.826644775390625,2.948309706878662,9.265410787200928,-1.3003507766723632
1790964448773656600,9.836656494140625,2.985868745422363,9.285162950897217,-1.295412735748291
1790964448783669800,9.846669677734376,2.889502128601074,9.352799147796631,-1.261444999694824
1790964448793681700,9.856681640625,2.8755858314514158,9.317933586120605,-1.3129203353881835
1790964448803693800,9.86669384765625,2.925864066314697,9.28860461578369,-1.314566349029541
1790964448813706800,9.876706787109375,2.927210804748535,9.254038329315184,-1.3766659545898436
1790964448823719000,9.886718994140624,2.845059760284424,9.24520971069336,-1.41093296585083
1790964448833731600,9.896731689453125,2.887407202148437,9.2580785446167,-1.4223054237365722
1790964448843743700,9.90674365234375,2.9287071807861325,9.266158975219726,-1.4552256965637207
1790964448853755600,9.916755615234376,2.9281086303710935,9.29593685836792,-1.4583680862426758
1790964448863768800,9.926768798828125,2.865410474395752,9.300575624084471,-1.4501380180358885
1790964448873780700,9.93678076171875,2.8583775070190427,9.28965207901001,-1.4716858329772948
1790964448883794000,9.9467939453125,2.8999767608642575,9.26376477355957,-1.4815619148254393
1790964448893805800,9.956805908203124,2.9097032051086424,9.244910435485838,-1.5192705909729003
1790964448903818500,9.966818603515625,2.8559833053588863,9.22530790939331,-1.5352818145751952
1790964448913830700,9.97683056640625,2.833986577606201,9.265560424804686,-1.5381249290466308
1790964448923842600,9.986842529296876,2.859574607849121,9.28965207901001,-1.5203180541992187
1790964448933855700,9.996855712890625,2.9008745864868164,9.300126711273192,-1.5129858116149901
1790964448943867600,10.00686767578125,2.9020716873168944,9.304765476989745,-1.5509937629699706
1790964448953880800,10.016880859375,2.8420670082092285,9.271097016143798,-1.564760422515869
1790964448963892700,10.026892822265625,2.8321909263610836,9.253739054107665,-1.5623662208557128
1790964448973904600,10.036904541015625,2.8413188201904296,9.249549201202392,-1.5485995613098145
1790964448983917800,10.046917724609376,2.8604724334716796,9.262717310333251,-1.5292963104248045
1790964448993929700,10.0569296875,2.864063735961914,9.286509689331055,-1.5403694931030272
1790964449003942700,10.066942626953125,2.868403226470947,9.273940130615234,-1.561618032836914
1790964449013954600,10.07695458984375,2.900575311279297,9.278279621124266,-1.5798738204956053
1790964449023967700,10.0869677734375,2.91748436050415,9.274089768218994,-1.5595231063842772
1790964449033979600,10.096979736328125,2.890250316619873,9.2580785446167,-1.5263035583496092
1790964449043991800,10.10699169921875,2.8886043029785156,9.242815509033203,-1.5107412475585937
1790964449054004700,10.117004638671874,2.906111902618408,9.242516233825683,-1.5168763893127442
1790964449064017000,10.127016845703125,2.9134441452026367,9.261220934295654,-1.5246575447082518
1790964449074029600,10.137029541015625,2.9384336250305174,9.260173471069335,-1.493383285522461
1790964449084041700,10.147041748046876,2.952798834991455,9.268702814483643,-1.4829086532592772
1790964449094054700,10.1570546875,2.9581857887268064,9.256133255767821,-1.4308347671508788
1790964449104066600,10.167066650390625,2.9855694702148434,9.235932179260253,-1.4055460121154784
1790964449114078700,10.17707861328125,3.0336031410217283,9.214982914733886,-1.3977648567199705
1790964449124091600,10.187091552734374,3.039439007568359,9.201066617584228,-1.3977648567199705
1790964449134103800,10.197103759765625,3.0545524055480957,9.22530790939331,-1.334917063140869
1790964449144116700,10.20711669921875,3.0985458610534664,9.239523481750489,-1.2785036865234374
1790964449154129000,10.21712890625,3.162740393066406,9.248801013183593,-1.2651859397888183
1790964449164140800,10.227140869140625,3.19850378036499,9.246855724334717,-1.2594997108459471
1790964449174153700,10.23715380859375,3.167678433990478,9.25074630203247,-1.2277765388488768
1790964449184165600,10.24716552734375,3.118298024749756,9.222464794921875,-1.1923124267578125
1790964449194178800,10.2571787109375,3.0892683296203614,9.235782541656494,-1.1495160720825195
1790964449204190700,10.267190673828125,3.1069255668640134,9.232340876770019,-1.1399392654418945
1790964449214204000,10.277203857421876,3.053654579925537,9.271246653747559,-1.0971429107666015
1790964449224215800,10.2872158203125,2.9755437507629394,9.299677798461914,-1.1023802268981933
1790964449234227700,10.297227783203125,2.93678761138916,9.296685046386719,-1.073799444580078
1790964449244240600,10.30724072265625,2.965368393707275,9.291298092651367,-1.0398317085266113
1790964449254252800,10.317252685546874,2.964320930480957,9.281870923614502,-1.0238204849243164
1790964449264265700,10.327265625,2.9523499221801757,9.279327084350586,-0.9919476753234863
1790964449274277600,10.337277587890625,2.8815713356018064,9.319579599761962,-0.9579799392700195
1790964449284290800,10.347290771484374,3.0713118171691893,9.325415466308593,-1.0485106895446776
1790964449294302700,10.357302734375,3.025073797607422,9.311499169158935,-0.9329904594421387
1790964449304314600,10.367314697265625,3.0439281356811523,9.335291548156738,-1.0963947227478026
1790964449314327800,10.377327880859376,3.1542110496520994,9.301024536895751,-1.2192471954345703
1790964449324339700,10.387339599609374,3.0232781463623044,9.207650672149658,-0.9834183319091796
1790964449334352600,10.3973525390625,2.859424970245361,9.360281027984618,-0.831835439300537
1790964449344364500,10.407364501953126,3.2122704399108883,9.150638745117186,-0.9307458953857422
1790964449354376700,10.417376708984374,2.9403789138793943,9.335890098571777,-0.5705681831359863
1790964449364389600,10.4273896484375,3.094954558563232,9.228749574279785,-0.853532891845703
1790964449374401800,10.43740185546875,3.1208418640136717,9.334842635345458,-0.9922469505310058
1790964449384415200,10.447415283203124,3.4778771865844726,9.402179557037353,-0.6189011291503906
1790964449394427400,10.457427490234375,2.625691033172607,9.18056626586914,-0.44202948150634763
1790964449404440000,10.467440185546875,2.959831802368164,9.32047742538452,-0.9211690887451172
1790964449414452200,10.4774521484375,3.4822166770935055,9.219472042846679,-0.45983635635375975
1790964449424464100,10.487464111328125,3.255216432189941,9.421931720733642,-0.8110358123779297
1790964449434477300,10.497477294921875,2.911947769165039,9.204358644866943,-1.174056639099121
1790964449444489200,10.5074892578125,3.1848867584228513,9.475202707672118,-0.8638578865051268
1790964449454502400,10.51750244140625,3.0897172424316404,9.306561128234863,-0.6099228729248046
1790964449464514300,10.527514404296875,2.7741315361022947,9.204358644866943,-1.2951134605407715
1790964449474527200,10.53752734375,3.2330700668334957,9.154230047607422,-0.7734767738342284
1790964449484539400,10.547539306640624,3.5494039611816404,9.173383660888671,-1.1927613395690917
1790964449494551300,10.55755126953125,2.9882629470825193,9.082104722595215,-1.3123217849731446
1790964449504564200,10.567564208984376,2.8576293190002438,9.140912300872802,-1.1691185981750487
1790964449514576100,10.577576171875,3.4205659843444822,9.050381550598145,-1.746121198272705
1790964449524589300,10.58758935546875,3.4612674125671385,9.28276874923706,-1.463306127166748
1790964449534601200,10.597601318359375,2.8248586837768555,9.521590364837646,-1.1085153686523437
1790964449544613000,10.607613037109376,2.5959131500244137,9.489717555236815,-0.7146691955566405
1790964449554626300,10.617626220703125,3.192967189025879,9.258976370239257,-0.8577227447509765
1790964449564638200,10.62763818359375,3.5667619232177734,9.031527212524413,-1.373224289703369
1790964449574651100,10.637651123046876,2.95609086227417,9.07207900314331,-1.483806478881836
1790964449584663000,10.6476630859375,2.1863550285339355,9.299977073669433,-1.4893430702209471
1790964449594676200,10.65767626953125,2.526930214691162,9.331999520874023,-1.3741221153259278
1790964449604688100,10.667688232421876,3.665073828887939,9.375544063568114,-1.2678794166564942
1790964449614700300,10.6777001953125,3.8302737434387204,9.374945513153076,-1.5391723922729492
1790964449624713200,10.687713134765625,2.635267839813232,9.248501737976074,-2.0126257705688477
1790964449634725400,10.697725341796875,2.0060417160034176,9.06594386138916,-1.7643769859313965
1790964449644738300,10.70773828125,2.9236195022583007,9.002347879791259,-1.4567220726013184
1790964449654750200,10.717750244140625,3.4940380477905273,9.113079706573485,-1.2005424949645995
1790964449664763100,10.72776318359375,2.901622774505615,9.234585440826416,-1.4067431129455565
1790964449674775000,10.737775146484376,2.5993548149108885,9.438541494750975,-2.0540753868103026
1790964449684787200,10.747787109375,2.8507459892272946,9.427169036865234,-2.0096330184936524
1790964449694800100,10.757800048828125,3.1331121475219725,9.331400970458985,-2.0178630867004395
1790964449704812300,10.767812255859376,2.95579158706665,9.191489810943603,-1.9915268684387206
1790964449714825200,10.7778251953125,2.5692776565551756,9.132682232666015,-2.0682909591674803
1790964449724837400,10.78783740234375,2.602197929382324,9.07192936553955,-2.2436662307739255
1790964449734850000,10.79785009765625,3.033154228210449,9.061604370880126,-2.268356435394287
1790964449744862200,10.8078623046875,3.145532068634033,9.163357941436766,-2.21553436126709
1790964449754874000,10.8178740234375,2.6937761428833005,9.311349531555175,-2.0753239265441894
1790964449764887300,10.82788720703125,2.536507021331787,9.34741219406128,-2.0389619888305663
1790964449774899200,10.837899169921876,2.9267618919372556,9.261969122314452,-2.1986253120422363
1790964449784912100,10.847912109375,3.0443770484924313,9.143755415344238,-2.306065111541748
1790964449794924300,10.85792431640625,2.6411037063598632,9.118466660308837,-2.362927400970459
1790964449804936200,10.867936279296876,2.4411878677368164,9.12968948059082,-2.2650644081115723
1790964449814949400,10.877949462890625,2.790591672515869,9.153781134796143,-2.1830630012512207
1790964449824961300,10.887961181640625,3.025073797607422,9.19328546218872,-2.2061071922302244
1790964449834974200,10.89797412109375,2.8344354904174804,9.224559721374511,-2.222866603851318
1790964449844986000,10.907986083984374,2.5549124465942383,9.258377819824219,-2.2495020973205566
1790964449854999300,10.917999267578125,2.7329811950683593,9.24446152267456,-2.1877017669677734
1790964449865011200,10.92801123046875,3.0334535034179684,9.165901780700683,-1.9776105712890624
1790964449875023000,10.938023193359374,3.2133179031372068,9.163956491851806,-1.7634791603088378
1790964449885036300,10.948036376953125,2.5369559341430663,9.042301119995116,-2.035969236755371
1790964449895048200,10.958048095703125,2.5885809074401855,9.109638041687012,-2.343624150085449
1790964449905061000,10.96806103515625,3.1515175727844236,9.14270795211792,-1.85146607131958
1790964449915073300,10.9780732421875,3.106027741241455,9.072976828765869,-2.333897705841064
1790964449925086200,10.988086181640625,3.229329126739502,9.152284758758544,-1.4362217208862305
1790964449935098000,10.99809814453125,3.0246248847961423,9.195829301452637,-1.009305637359619
1790964449945110300,11.0081103515625,2.8770822074890137,9.0527757522583,-1.7286135986328124
1790964449955123200,11.018123291015625,3.087472678375244,9.14225903930664,-0.5575497116088867
1790964449965135400,11.02813525390625,3.4392706848144527,9.165153592681884,-0.6202478675842285
1790964449975148300,11.038148193359374,2.8591256950378416,9.171139096832276,-0.739957950592041
1790964449985160200,11.04816015625,2.2845172966003418,9.326462929534912,-0.8301894256591796
1790964449995173000,11.058173095703125,3.0042741706848144,9.377938265228272,-1.4776713371276855
1790964450005185000,11.06818505859375,3.1084219429016113,9.430610701751709,-1.3506290115356445
1790964450015197200,11.078197265625,2.396146949005127,9.345167630004882,-1.324143155670166
1790964450025210000,11.088210205078125,2.396745499420166,9.217676391601563,-1.0040683212280272
1790964450035222300,11.09822216796875,2.7742811737060546,9.188646696472167,-0.7906850982666015
1790964450045235200,11.108235107421875,2.9032687881469723,9.214085089111327,-0.9482534950256347
1790964450055247400,11.118247314453125,2.666841374206543,9.516502686309813,-0.4750993919372558
1790964450065260300,11.12826025390625,2.4135049110412594,9.585635259246825,-0.4070142822265625
1790964450075272400,11.1382724609375,2.3804350006103516,9.442731347656249,-0.19662381134033202
1790964450085284400,11.148284423828125,2.6234464691162107,9.329754956817627,0.15023615417480468
1790964450095297300,11.15829736328125,2.698564546203613,9.27588541946411,0.07796119155883789
1790964450105309200,11.16830908203125,2.390161444854736,9.344718717193603,-0.01945288848876953
1790964450115322000,11.178322021484375,2.464980246734619,9.534010285949707,-0.28745383682250975
1790964450125334300,11.188334228515625,2.644844646453857,9.643395374298095,-0.5172971961975097
1790964450135346200,11.19834619140625,2.6562171043395995,9.592967501831055,-0.5976525894165039
1790964450145359400,11.208359375,2.54099614944458,9.418639693450928,-0.4291606475830078
1790964450155371300,11.218371337890625,2.6626515213012696,9.228001386260987,-0.25139117431640623
1790964450165384200,11.22838427734375,2.80929637298584,9.100210872650146,0.030825346374511717
1790964450175396000,11.23839599609375,2.6062381446838376,9.232939427185059,0.40192660369873046
1790964450185409300,11.2484091796875,2.3479636405944824,9.50647696685791,0.8017582809448242
1790964450195421200,11.258421142578126,2.601599378967285,9.803657247924804,1.0811316871643066
1790964450205433000,11.26843310546875,3.058742258453369,9.90271734161377,0.9389759635925292
1790964450215446300,11.2784462890625,2.967463320159912,9.699210200500488,0.5970540390014648
1790964450225458200,11.288458251953125,2.4438813446044922,9.562291793060302,0.5080196647644043
1790964450235471400,11.298471435546874,2.3912089080810546,9.399486080169677,0.6536170532226562
1790964450245483300,11.308483154296875,2.7480945930480956,9.38512087020874,1.0480617767333984
1790964450255496200,11.31849609375,2.9828759933471676,9.394697676849365,1.207276187133789
1790964450265508000,11.328508056640626,2.8297967247009277,9.520692539215087,1.1745055519104004
1790964450275520300,11.338520263671874,2.5662849044799803,9.53805050125122,1.0941501586914062
1790964450285533200,11.348533203125,2.408866145324707,9.647734864807129,1.0024223075866698
1790964450295545300,11.35854541015625,2.5579051986694332,9.715071786499022,0.9512462471008301
1790964450305558300,11.368558349609375,2.777872476196289,9.758915604400634,0.8276455863952636
1790964450315570200,11.378570068359375,2.6879402763366698,9.679158761596678,0.6486790122985839
1790964450325583000,11.3885830078125,2.4971523315429685,9.543287817382812,0.6786065330505371
1790964450335595000,11.398594970703124,2.473210314941406,9.432555990600585,0.7758709754943848
1790964450345607200,11.408607177734375,2.606088507080078,9.484779514312743,1.0748469078063965
1790964450355620000,11.4186201171875,2.626439221191406,9.555109188079834,1.2337620429992675
1790964450365632300,11.42863232421875,2.558803024291992,9.619453357696532,0.9421183532714843
1790964450375645200,11.438645263671875,2.5917232971191404,9.644891750335693,0.5270236404418945
1790964450385657300,11.4486572265625,2.7252000396728513,9.663297175598144,0.3324947555541992
1790964450395670500,11.45867041015625,2.808398547363281,9.59566097869873,0.24001871643066405
1790964450405682400,11.468682373046875,2.574365335083008,9.523386016082764,0.4059668190002441
1790964450415694300,11.4786943359375,2.4594436553955075,9.388263259887696,0.3595791618347168
1790964450425707300,11.488707275390626,2.510918991088867,9.354894074249268,0.18345570220947263
1790964450435719200,11.49871923828125,2.570175482177734,9.428366137695312,0.16819266662597654
1790964450445732400,11.508732421875,2.6206033546447753,9.523984566497802,-0.0016460136413574218
1790964450455744300,11.518744140625,2.7584195877075195,9.66673884048462,-0.032920272827148434
1790964450465757400,11.52875732421875,2.807351084136963,9.708038819122313,-0.031573534393310544
1790964450475769300,11.538769287109375,2.7994202911376953,9.700706576538085,-0.2271498825073242
1790964450485781200,11.54878125,2.7908909477233883,9.419537519073486,-0.2424129180908203
1790964450495794200,11.558794189453126,2.618358790588379,9.162759391021728,-0.23358429946899412
1790964450505806000,11.56880615234375,2.61746096496582,9.006537732696533,-0.40028059005737304
1790964450515819300,11.5788193359375,2.717568521881103,9.176226775360107,-0.2549824768066406
1790964450525831200,11.5888310546875,2.6536732650756836,9.400234268188475,-0.26650457229614255
1790964450535844400,11.59884423828125,2.9780875900268553,9.476699083709716,-0.2507926239013672
1790964450545856300,11.608856201171875,3.4008138206481933,9.948506448364258,-0.0796072052001953
1790964450555868400,11.618868408203125,3.772663265991211,10.030657492828368,-0.4011784156799316
1790964450565881300,11.62888134765625,2.958634701538086,9.597755905151367,0.1744774459838867
1790964450575893500,11.6388935546875,1.9677344894409179,9.18056626586914,0.2813186950683594
1790964450585906200,11.64890625,2.8413188201904296,8.700229557800293,0.26665420989990235
1790964450595918300,11.65891845703125,3.445705101776123,8.95670841064453,0.9356839363098144
1790964450605931300,11.66893115234375,2.840121719360351,9.221118056488036,0.7510311332702636
1790964450615943200,11.678943115234375,3.261650849151611,9.641001172637939,0.18959084396362302
1790964450625955300,11.688955322265626,3.7198411918640133,9.865607215881347,0.46028526916503903
1790964450635968300,11.69896826171875,3.5667619232177734,9.79303297805786,0.33039982910156246
1790964450645980400,11.70898046875,3.256563170623779,9.435548742675781,0.8032546569824218
1790964450655993300,11.718993408203126,2.5864859809875487,9.265710062408447,1.3407529296874998
1790964450666005200,11.729005126953124,2.830694550323486,8.937105884552002,1.28957686920166
1790964450676018200,11.73901806640625,3.3167174873352048,8.991873247528076,1.380257257080078
1790964450686030300,11.7490302734375,3.481468489074707,9.185055393981933,1.1807903312683106
1790964450696042200,11.759042236328124,3.244292887115478,9.361627766418456,1.0298059890747069
1790964450706055400,11.769055419921875,2.520346160125732,9.612869303131102,1.2701239807128906
1790964450716067300,11.7790673828125,2.4660277099609376,9.683797527313232,1.268029054260254
1790964450726080500,11.78908056640625,3.2110733390808104,9.706841718292235,1.2159551681518554
1790964450736092400,11.799092529296875,3.7289690856933593,9.475202707672118,1.232714579772949
1790964450746105000,11.80910498046875,2.990208235931396,9.268852452087401,1.2389993591308592
1790964450756117200,11.8191171875,2.1089923873901366,9.007585195922852,1.120486376953125
1790964450766129200,11.829129150390624,1.8739117118835449,8.981997165679932,1.3054384552001952
1790964450776142300,11.839142333984375,1.8353052101135252,8.915408432006835,1.4110826034545898
1790964450786154200,11.849154296875,1.97910694732666,9.081356534576415,0.9928455009460448
1790964450796167400,11.85916748046875,2.761412339782715,9.279775997161865,0.7363666481018066
1790964450806179300,11.869179443359375,3.035698067474365,9.443928448486327,0.5662286926269531
1790964450816191200,11.879191162109375,2.374449496459961,9.758915604400634,0.2967313682556152
1790964450826204400,11.889204345703124,2.6445453712463376,10.31706386642456,0.35404257049560545
1790964450836216300,11.89921630859375,3.4543840827941894,10.627561894226073,0.503081623840332
1790964450846229200,11.909229248046875,2.7545290100097652,9.949853186798094,0.42452188186645506
1790964450856241200,11.9192412109375,1.5613187576293945,9.072378278350829,0.21398177337646482
1790964450866254300,11.92925439453125,1.848323681640625,8.414272097015381,0.14514847564697264
1790964450876266200,11.939266357421875,2.252494849395752,8.160187445831298,0.32620997619628905
1790964450886278400,11.9492783203125,2.582595403289795,8.814103774261474,0.1039981346130371
1790964450896291300,11.959291259765624,2.634818927001953,9.620500820922851,0.20290859069824219
1790964450906303500,11.969303466796875,2.5157073944091795,10.376021082305908,-0.09771335525512695
1790964450916316200,11.979316162109376,3.0576947952270506,10.096348400878906,-0.028431144714355466
1790964450926328300,11.989328369140624,3.320458427429199,9.476100533294677,0.06868366012573242
1790964450936341200,11.99934130859375,3.9326258644104,9.13582462234497,-0.41195232315063474
1790964450946353200,12.009353271484375,4.689941777038574,9.246406811523437,-0.36586394119262694
1790964450956366300,12.019366455078124,4.802319617462158,9.956437241363524,-0.11941080780029296
1790964450966378200,12.029378173828125,4.3822868637084955,10.469095671844482,0.2925415153503418
1790964450976390400,12.039390380859375,3.8890813217163083,9.645490300750732,1.0235212097167967
1790964450986403300,12.0494033203125,3.9152679023742674,8.697386443328856,1.5815198341369627
1790964450996415500,12.05941552734375,3.886088569641113,7.858368399047851,1.7268179473876952
1790964451006428200,12.06942822265625,2.3784897117614743,8.09479581298828,1.994519620513916
1790964451016440300,12.0794404296875,1.3115735969543456,9.566182370758057,2.1110873138427735
1790964451026453200,12.089453369140625,3.137302000427246,10.74532668838501,0.7314286071777343
1790964451036465400,12.09946533203125,4.723759875488281,10.352079065704345,0.7453449043273925
1790964451046477300,12.109477294921875,4.20706122970581,10.026018727111817,0.8872013526916503
1790964451056490500,12.119490478515624,2.7822119667053222,9.169493083190918,0.032172084808349606
1790964451066502400,12.12950244140625,1.4236521621704101,9.150489107513428,-0.13781623306274413
1790964451076515000,12.13951513671875,1.99826056060791,8.821585654449462,-0.46686932373046874
1790964451086527200,12.14952734375,3.577236555480957,8.845527671051025,-0.6561608924865723
1790964451096540200,12.1595400390625,3.941604120635986,8.799439289093018,-0.21143793411254883
1790964451106552300,12.16955224609375,3.0726585556030273,9.14854381866455,0.303913973236084
1790964451116564200,12.179564208984376,2.9200281997680664,9.16156229019165,0.23837270278930664
1790964451126577400,12.189577392578125,4.179078997802734,9.135076434326171,0.09546879119873046
1790964451136589300,12.19958935546875,4.7670051429748534,8.979602964019774,0.06359598159790039
1790964451146602500,12.2096025390625,4.479401668548584,8.876951567840576,0.02528875503540039
1790964451156614400,12.219614501953124,4.329913702392578,8.91870045928955,0.25692776565551756
1790964451166627300,12.22962744140625,4.489128112792969,8.91870045928955,0.3001730331420898
1790964451176639200,12.23963916015625,4.918288760375976,8.71504368057251,0.19288287124633788
1790964451186651100,12.249651123046876,5.2533273551940916,8.436867375183105,0.6546645164489746
1790964451196664300,12.259664306640625,5.312583846282958,8.262689204406739,1.3970166687011718
1790964451206676200,12.26967626953125,5.458031597137451,8.367285889434815,1.7016788299560546
1790964451216689400,12.279689453125,5.657199247741699,8.444947805786132,1.4489409172058105
1790964451226701300,12.289701416015625,5.806687213897705,8.374169219207763,1.0919055946350098
1790964451236714200,12.29971435546875,5.820753148651122,8.281393904876708,1.0826280632019043
1790964451246726400,12.309726318359376,5.9017070922851556,8.430283320617676,1.3798083442687987
1790964451256738300,12.31973828125,6.000467910766601,8.481309743499756,1.631798069000244
1790964451266751200,12.329751220703125,5.929838961791992,8.540865509796141,1.7030255683898925
1790964451276763100,12.33976318359375,5.243151998138427,8.750657430267333,1.4100351402282714
1790964451286776300,12.3497763671875,4.261230042266845,8.826374057769774,0.9832686943054199
1790964451296788200,12.359788330078125,4.307468061828613,8.834304850769042,0.7179612228393554
1790964451306801400,12.369801513671876,4.956296711730957,8.858845417785645,0.8755296195983886
1790964451316813300,12.379813232421874,4.707748651885986,8.993668898773192,1.0480617767333984
1790964451326825500,12.389825439453125,3.916315365600586,9.172934748077392,0.9900023864746094
1790964451336838100,12.399838134765625,3.58157604598999,9.307458953857422,0.9014169250488281
1790964451346850300,12.409850341796876,3.6061166130065914,9.299677798461914,0.6165069274902344
1790964451356863200,12.41986328125,3.578433656311035,9.216479290771483,0.06883329772949218
1790964451366875400,12.42987548828125,3.4983775382995606,8.993818536376953,-0.3872621185302734
1790964451376888300,12.439888427734376,2.9855694702148434,8.974066372680664,-0.4305073860168457
1790964451386899200,12.449899169921874,2.6102783599853514,9.159916276550293,-0.20784663162231445
1790964451396911400,12.459911376953125,3.135506349182129,9.293542656707762,0.2700958747863769
1790964451406924300,12.46992431640625,3.9968203964233395,9.242665871429443,0.2958335426330566
1790964451416936400,12.4799365234375,3.7395933555603027,9.091831166839599,0.20350714111328125
1790964451426949400,12.489949462890625,2.6626515213012696,9.283816212463378,0.6117185241699218
1790964451436961500,12.49996142578125,2.4658780723571776,9.426869761657715,0.831236888885498
1790964451446974200,12.50997412109375,3.2139164535522458,9.462483511352538,0.7448959915161132
1790964451456986400,12.519986328125,3.667168755340576,9.304166926574707,0.07377133865356444
1790964451466998300,12.529998291015625,3.227234200286865,9.305812940216065,-0.5181950218200684
1790964451477011200,12.54001123046875,2.9140426956176757,9.354894074249268,-0.3781342247009277
1790964451487023400,12.5500234375,3.05185892868042,9.256133255767821,-0.37888241271972656
1790964451497036300,12.560036376953125,3.2261867370605466,8.983792816925048,-0.23089082260131835
1790964451507048400,12.57004833984375,3.225887461853027,8.997260201263428,-0.29493571701049803
1790964451517061000,12.58006103515625,3.0787936973571775,9.285312588500975,-0.025139117431640625
1790964451527073300,12.5900732421875,2.9638720176696776,9.50064110031128,0.051475335693359374
1790964451537085200,12.600085205078125,3.3104327079772946,9.386018695831298,-0.6075286712646484
1790964451547098400,12.610098388671876,3.7805940589904785,9.269451002502441,-1.024718310546875
1790964451557110300,12.6201103515625,3.2323218788146972,9.2190231300354,-1.3298293846130371
1790964451567123500,12.63012353515625,2.6458921096801755,9.183409380340576,-1.261444999694824
1790964451577135400,12.64013525390625,3.132812872314453,9.00115077896118,-0.9579799392700195
1790964451587148300,12.650148193359374,3.825335702514648,8.795099798583983,-1.1290157203674316
1790964451597160400,12.660160400390625,3.573944528198242,8.794351610565185,-1.440261936187744
1790964451607173000,12.670173095703126,2.7214590995788575,9.15497823562622,-1.4214075981140135
1790964451617185300,12.680185302734374,2.7712884216308593,9.488969367218017,-1.3082815696716308
1790964451627197200,12.690197265625,3.653701371002197,9.551966798400878,-1.0402806213378906
1790964451637210400,12.70021044921875,3.8208465744018554,9.23772783050537,-0.9400234268188477
1790964451647222300,12.71022216796875,2.961028903198242,9.020304392242432,-0.9989806427001953
1790964451657235500,12.7202353515625,2.318036119842529,8.9769094871521,-0.9953893402099608
1790964451667247400,12.730247314453125,2.7352257591247557,9.02060366744995,-1.1459247695922852
1790964451677260300,12.74026025390625,3.1850363960266113,9.172934748077392,-1.0978910987854003
1790964451687272200,12.750272216796875,3.5736452529907226,9.345167630004882,-1.0471639511108397
1790964451697284000,12.7602841796875,3.6070144386291503,9.48058966140747,-0.7356184600830078
1790964451707297300,12.77029736328125,3.227084562683105,9.362974504852295,-0.7357680976867675
1790964451717309200,12.78030908203125,2.9384336250305174,8.994566724395751,-0.8767267204284668
1790964451727322400,12.790322265625,3.2064345733642576,8.930821105194092,-0.7118260810852051
1790964451737334300,12.800334228515625,3.490297107696533,8.999055852508544,-0.6405985816955566
1790964451747347500,12.810347412109374,3.062632836151123,9.164704679870605,-0.4604349067687988
1790964451757359400,12.820359375,2.927210804748535,9.382128118133544,-0.4604349067687988
1790964451767371500,12.83037158203125,3.550301786804199,9.325714741516112,-0.4230255058288574
1790964451777384200,12.84038427734375,3.995324020385742,9.133131145477295,-0.29613281784057616
1790964451787396000,12.85039599609375,3.6180876213073727,9.182661192321778,-0.37289690856933594
1790964451797409300,12.8604091796875,2.7000609222412106,9.271695566558837,-0.43350013809204097
1790964451807421200,12.870421142578126,2.3521534934997557,9.255684342956542,-0.5615899269104003
1790964451817434400,12.880434326171875,3.2415994102478027,9.232939427185059,-1.1791443176269532
