time,seconds_elapsed,z,y,x
1790964439003455700,0.066455810546875,0.09246551772952079,0.25158348201811315,-0.20196385719403623
1790964439013467600,0.076467529296875,0.3610679390877485,0.1907166331231594,-0.024104952078312633
1790964439023479800,0.086479736328125,0.6026660336643457,0.17840484856069086,-0.22369448135644196
1790964439033492500,0.096492431640625,0.6426648665755986,0.36961014198362824,-0.1485701937239617
1790964439043504600,0.106504638671875,0.41222587939500804,0.20538520994484424,-0.0778411453757435
1790964439053516500,0.1165166015625,0.27089666977524757,-0.44108138700127597,-0.14772453668005764
1790964439063529500,0.126529541015625,0.1252004971176386,-0.41103345474004743,0.3429270830456167
1790964439073541600,0.136541748046875,0.40689387071728705,-0.002096095496416092,0.5853873474095016
1790964439083553500,0.146553466796875,0.5725011970251799,-0.1551420463949442,0.20150800318531692
1790964439093565700,0.156565673828125,0.531429766446352,-0.2137140623509884,0.19226210899949073
1790964439103578600,0.16657861328125,0.4028957409918308,-0.14571896901130676,0.48055568458177145
1790964439113590800,0.1765908203125,0.24607144059836863,-0.20845278082191943,0.3383026381153613
1790964439123602700,0.186602783203125,-0.05421265170276165,-0.17111176894307137,0.2632502466753125
1790964439133615600,0.19661572265625,-0.46668812194466586,-0.08319558508098125,0.5197634401805699
1790964439143627500,0.20662744140625,-0.7494120076358318,-0.13629530710577964,0.5443355348465964
1790964439153639700,0.2166396484375,-0.6999918509066104,-0.18060674251914025,-0.05976498860027641
1790964439163652600,0.226652587890625,-0.5903752918899059,-0.06666822865009307,-0.22860578040406107
1790964439173664500,0.23666455078125,-0.4670493564724922,0.09457564175128937,-0.39901166610009964
1790964439183676400,0.246676513671875,-0.5050462019115686,0.29327216771245,-0.380133362628892
1790964439193688600,0.2566884765625,-0.4855833765506744,0.2190332115471363,-0.28464805868677795
1790964439203701500,0.266701416015625,-0.46501288220882414,0.22070319058597088,-0.16189429713413117
1790964439213713700,0.276713623046875,-0.39554654727280136,0.18352175318300723,0.18983685461394487
1790964439223725600,0.2867255859375,-0.22912556649446486,0.04814356092214584,0.4115268642801791
1790964439233738800,0.29673876953125,-0.09862228679358959,-0.03331599414646625,0.36992596646714954
1790964439243750700,0.306750732421875,0.00475917722582817,0.03242635183036327,0.1667651545735076
1790964439253762600,0.316762451171875,0.17189502827525138,0.11656944689452647,-0.0006886398512870073
1790964439263775500,0.326775390625,0.33753742589652536,0.10211831221580504,-0.009231792595237494
1790964439273787400,0.336787353515625,0.254191034168005,0.039703064835071564,-0.014492380004562436
1790964439283799600,0.346799560546875,0.06712181763648986,-0.009285130217671394,-0.1739130535667762
1790964439293811500,0.3568115234375,-0.10867664781808853,0.1735895572334528,-0.18464491199404
1790964439303824600,0.36682470703125,0.06539747806191444,0.22855858026146889,-0.03658011050894856
1790964439313836500,0.37683642578125,0.2597369778573513,0.12942483681440353,0.152441847525537
1790964439323848400,0.386848388671875,0.30982232049703595,0.03502396710813045,0.09205722918957471
1790964439333861600,0.396861572265625,0.2779395740240812,0.13798574441075323,0.037161855919659134
1790964439343873500,0.40687353515625,0.03733516665995121,0.19097849892973898,-0.14831760720238088
1790964439353885700,0.4168857421875,-0.28158932870328424,0.10998363876342773,-0.2974820404924452
1790964439363898600,0.426898681640625,-0.4662082294732332,0.05246083959937095,-0.22699235385805366
1790964439373910800,0.436910888671875,-0.5241372713506222,0.01321136375069618,-0.170725911430642
1790964439383925000,0.446925048828125,-0.5503121615707874,-0.02088379807472229,0.05566825733855366
1790964439393937000,0.45693701171875,-0.5040320564329623,-0.0224345346480608,0.1560805693540722
1790964439403949800,0.46694970703125,-0.4403559953361749,0.051585810330510136,0.16544687504917382
1790964439413962000,0.4769619140625,-0.46556467087268827,0.14050912540853022,0.1205350625898689
1790964439423974000,0.486973876953125,-0.4733797285377979,0.1541261473506689,0.03072795041464269
1790964439433986800,0.49698681640625,-0.4384212278813123,0.1456996797889471,-0.09214987590909003
1790964439443998700,0.506998779296875,-0.25849954501688477,0.07762392242848873,-0.06367043507359922
1790964439454011000,0.517010986328125,-0.013981179079413413,0.01931611036658287,0.10650310317128896
1790964439464022800,0.527022705078125,0.3117547498643398,0.05744856488406658,0.20711466408595441
1790964439474035700,0.53703564453125,0.5365636222034692,0.08798106579184532,0.2693017287340015
1790964439484048000,0.5470478515625,0.5364788665294646,0.1293470954030752,0.18138846748135984
1790964439494059800,0.557059814453125,0.3729980308562517,0.23637948314547538,0.0861224323131144
1790964439504073000,0.567072998046875,0.14521394209861754,0.3224684515804052,0.23679807388372717
1790964439514084900,0.5770849609375,-0.06522855123579502,0.2804424967557192,0.2902433944758028
1790964439524097000,0.587096923828125,-0.349421924957633,0.12698913410007953,0.19434307999201117
1790964439534110000,0.59710986328125,-0.6751251206755637,0.06372808354496956,0.06401742188036441
1790964439544121900,0.607121826171875,-1.2947241689622402,-0.12127251001894473,0.10015862951539456
1790964439554134000,0.617134033203125,-1.832021366137266,0.15444178917109966,-0.012336480612307786
1790964439564146700,0.627146728515625,-2.170032839286327,0.06539806258380412,0.8488500677917152
1790964439583545900,0.6465458984375,-2.1094722798615693,-0.8584797005981206,1.432638747832924
1790964439593557800,0.656557861328125,-1.7564491155415773,-0.5405407091408968,0.3634137715615332
1790964439603569700,0.666569580078125,-1.3448077580362559,-0.028452772024273872,-0.3787932731315493
1790964439613582800,0.676582763671875,-0.3989566479772329,0.3434995491713285,-1.2516228399910032
1790964439623594800,0.6865947265625,1.0381897865384817,0.7573772874265908,-1.9942203453063965
1790964439633607000,0.69660693359375,2.428842765426636,0.8613947112619876,-1.1032421044245362
1790964439643618800,0.706618896484375,3.003987754958868,0.5112321970701217,-0.21531886719912288
1790964439653632000,0.716632080078125,2.853951507270336,0.1003343514084816,-0.11043605870604514
1790964439663644000,0.726643798828125,2.00135677305758,0.15988076535463333,-0.15664002986773848
1790964439673655800,0.73665576171875,1.1122276671737432,0.35470074214339253,0.042906390921026466
1790964439683668700,0.746668701171875,0.7425760241359471,0.43234044666290283,0.18980828610658645
1790964439693680600,0.7566806640625,0.5653595085769891,0.388404274302721,-0.25242080962508917
1790964439703692800,0.76669287109375,0.3780903855592012,0.24543431173861024,-0.3783075354412198
1790964439713705700,0.776705810546875,0.11442366703748702,0.0535176551759243,-0.20619418824017047
1790964439723718000,0.7867177734375,-0.24927345151007174,-0.17842238421738146,0.0016869301736354826
1790964439733729800,0.796729736328125,-0.5276981787025928,-0.24891046341657638,0.1713464544817805
1790964439743743000,0.806742919921875,-0.6376818174660206,-0.23420681528151033,0.12771174928620457
1790964439753755000,0.8167548828125,-0.631022944098711,-0.24255495691001414,-0.029733897875994442
1790964439763766800,0.826766845703125,-0.60409402064085,-0.3235889800429344,-0.045741029825061556
1790964439773779000,0.836779052734375,-0.38188451714515687,-0.2168985376060009,0.24725655872970817
1790964439783791900,0.8467919921875,-0.21904139485359192,-0.006996142497658729,0.4420354728557169
1790964439793804000,0.856803955078125,-0.18530980564355848,0.09519581947624683,0.35280586830750105
1790964439803816000,0.86681591796875,-0.1507622238755226,0.1154968492269516,0.19626023872494697
1790964439813828900,0.876828857421875,-0.11924831071496009,0.08023615075349808,0.03930814723335206
1790964439823840800,0.8868408203125,-0.06836334213018418,0.16430208892822265,-0.04968808695040643
1790964439833852700,0.896852783203125,0.07077040327191353,0.22685294538736342,-0.016185557255893945
1790964439843865900,0.906865966796875,0.31572716062664985,0.24845278277695176,0.09229914818666875
1790964439853877800,0.916877685546875,0.520780362138152,0.20355740999579428,0.19515183909162878
1790964439863890000,0.926889892578125,0.42439737870395183,0.09581190554797649,0.2842360438197851
1790964439873901800,0.93690185546875,0.14153145419359206,-0.048103813433647155,0.29997962946183976
1790964439883915000,0.9469150390625,-0.13001988009810447,-0.1816401772201061,0.2907923335954547
1790964439893927000,0.956927001953125,-0.26431495329737664,-0.11151683968007564,0.019772256636247036
1790964439903938800,0.966938720703125,-0.24476328060925007,0.11717150444090366,-0.17941643675602972
1790964439913952000,0.976951904296875,-0.15023615417480468,0.27271570189595223,0.07738551056273281
1790964439923964000,0.9869638671875,0.04001403048038482,0.18704291304647921,0.12388013523407279
1790964439933975800,0.996975830078125,0.023970073652267453,0.13371055130958556,0.22942199215777218
1790964439943988700,1.00698876953125,-0.20771569871902465,0.11689619463086127,0.2873402203802019
1790964439954001000,1.0170009765625,-0.5036071090191603,0.13584580977261065,0.20969320933707059
1790964439964012800,1.0270126953125,-0.41591596608459946,0.20686229676008222,0.03989259605780244
1790964439974026000,1.03702587890625,-0.1395464178562164,0.265049112790823,-0.262808201996237
1790964439984038000,1.047037841796875,0.03752513627409935,0.2102051774471998,-0.36919958842135964
1790964439994049800,1.0570498046875,0.1276303546130657,0.17322949174940586,-0.29573242034614083
1790964440004062000,1.06706201171875,0.22703414717316625,0.16341829183101653,-0.18755122789479792
1790964440014075000,1.077074951171875,0.22285189305245875,0.05756020856499672,-0.053507499108090995
1790964440024087000,1.087087158203125,0.2395499298751354,-0.11018939046859741,0.16237674688883125
1790964440034099000,1.097098876953125,0.40788755792975423,-0.04516308380663395,0.30272374053820966
1790964440044112000,1.10711181640625,0.6699181996822356,0.3701490711659193,0.04767462823614478
1790964440054123800,1.117123779296875,0.7457406256467104,0.8705284503102302,-0.5057783886436372
1790964440064135700,1.1271357421875,0.47283495413661003,0.5107014511942863,-0.8259430933263152
1790964440074148900,1.13714892578125,0.39782442907691,0.21239888809919355,-0.7612846701286733
1790964440084160800,1.147160888671875,0.3036123599410057,0.3445610409229994,-0.44030799147598443
1790964440094173000,1.1571728515625,0.05697919380664825,0.21227438493669032,0.04084332091137766
1790964440104184800,1.167184814453125,-0.1581038188099861,-0.05051379718482494,0.1800225128903985
1790964440114198000,1.177197998046875,-0.2422171032577753,-0.3331476665049791,0.2432377515424043
1790964440124210000,1.1872099609375,-0.426838342115283,-0.54944940726161,0.28110198357775806
1790964440134221800,1.197221923828125,-0.7148053891569376,-0.770422646960616,0.301624181798473
1790964440144235000,1.207235107421875,-0.5652607243776321,-1.01952424903512,0.37271439160928127
1790964440154247000,1.217246826171875,-0.612602321267128,-0.7117407408893108,0.6172376529175788
1790964440164259000,1.227259033203125,-0.9026426674515008,-0.36477731499969956,0.69553063371405
1790964440174271700,1.237271728515625,-1.024835799446702,0.047126492834091184,0.3339076910920441
1790964440184283600,1.24728369140625,-0.704067722043395,0.2691027720957994,0.267873668692261
1790964440194295800,1.2572958984375,0.12304010421335697,0.25365093594193455,0.4523704043872654
1790964440204308700,1.267308837890625,0.8477928868889808,0.1942629274278879,0.4025833871070295
1790964440214321000,1.27732080078125,1.1183090329140424,0.22673311839997767,0.23256628153286873
1790964440224332800,1.287332763671875,1.0864315471380948,0.2605523858934641,-0.0016589461881667375
1790964440234346000,1.297345947265625,0.5386076952517033,0.3238561065465212,-0.14213161204382777
1790964440244358000,1.30735791015625,0.007274374917149543,0.24984452939629553,-0.21882702145054936
1790964440254369800,1.317369873046875,-0.317179697522521,0.09199790021777153,-0.3981288188509643
1790964440264382000,1.3273818359375,-0.4660808037012815,-0.11976911971867084,-0.33301344566605984
1790964440274394600,1.33739453125,-0.6128840608179569,-0.21532617372274399,-0.031665961917117236
1790964440284406800,1.34740673828125,-0.6600152298271655,-0.08656184664368628,0.2783108915545046
1790964440294418700,1.357418701171875,-0.4965414084166288,0.10258709877133369,0.298335223255679
1790964440304431900,1.367431884765625,-0.25453064138591286,0.03272621155977249,0.2125138927809894
1790964440314443800,1.37744384765625,-0.12057634444832802,-0.024733459240198135,0.2957959871016443
1790964440324455700,1.38745556640625,-0.06866787803471087,0.11574760911762713,0.41328488692864773
1790964440334468900,1.39746875,-0.039651042386889455,0.22292729637622832,0.3577178249422461
1790964440344480800,1.407480712890625,0.010171849924325942,0.19379940156936645,-0.12018617608696222
1790964440354493000,1.417492919921875,0.0759083506822586,0.28296412418782707,-0.3840843652769923
1790964440364505900,1.427505859375,0.2605687525063753,0.3304378230243921,-0.19433350844606756
1790964440374515000,1.437514892578125,0.4353612557888031,0.2770329805731773,-0.24827903364524243
1790964440384526800,1.44752685546875,0.17052198635637758,0.4043371719717979,-0.30012612526044247
1790964440394540000,1.4575400390625,-0.05068623114228248,0.4104956946015358,-0.07446005157008767
1790964440404552000,1.467552001953125,0.22539339422881602,0.45158933701217174,0.49013643674515184
1790964440414564000,1.477564208984375,0.6411082847833633,0.2997556845128536,0.7571934552922844
1790964440424576000,1.487575927734375,0.8692711437255144,0.31055881807804103,1.4128785469606517
1790964440434589200,1.497589111328125,0.7432388719588517,0.19689561401903627,1.612086821836233
1790964440444601000,1.50760107421875,0.13254384561777113,-0.010949848559498786,1.1876279222033916
1790964440454613000,1.517613037109375,-0.7257008771806955,-0.25338147135078903,1.0678315491516142
1790964440464626200,1.527626220703125,-2.103608940786123,-0.7090402497589587,1.4004992501199245
1790964440474638000,1.53763818359375,-3.686029523155093,-1.098788924407959,1.146735720648989
1790964440484650200,1.547650146484375,-5.018378781634569,0.5218196420580148,-1.2352391298145056
1790964440494663000,1.557662841796875,-5.882464047154784,0.33637656542360783,0.3762035488992929
1790964440504675000,1.567675048828125,-5.988215162914991,0.09728373166620731,1.7253388147458433
1790964440514687000,1.57768701171875,-5.276653870245814,0.1327986971616745,0.6481107108913362
1790964440524700200,1.5877001953125,-4.599222226193547,-0.02991641483604908,0.15972294444441795
1790964440534712000,1.597712158203125,-4.335901544630527,-0.2223351757019758,0.4241029258020222
1790964440544724000,1.607723876953125,-3.7174686175137754,-1.0400275233596563,1.6564283601269125
1790964440554737200,1.617737060546875,-3.372846786314249,-1.9500158773988485,1.9875360452368855
1790964440564749000,1.6277490234375,-2.630988555058837,-2.3879285712361336,1.4483499655753374
1790964440574761200,1.63776123046875,-1.4989344899088144,-1.0962532684504984,2.4864386298269032
1790964440584773000,1.647773193359375,1.4073516002327202,-0.0778039551705122,1.967228878006339
1790964440594786000,1.6577861328125,1.6549509810507297,0.012326397609710693,0.3045636693164706
1790964440604798000,1.6677978515625,1.0413105489075183,-0.021296762789785862,-0.6597977876842022
1790964440614810000,1.67781005859375,3.232740981009602,0.7380062320023775,-2.3851436166927216
1790964440624823000,1.687822998046875,5.781458664616942,1.885759970587492,-1.508509835244715
1790964440634835000,1.6978349609375,5.857185228991508,2.3210268260911104,1.1403294338032604
1790964440644847000,1.70784716796875,5.3167351207435125,2.13685800717622,2.096237242974341
1790964440654860000,1.717860107421875,5.13473429351747,1.8688018215239046,2.717228330141306
1790964440664872200,1.7278720703125,4.792138999709486,1.5767945591807364,3.0542560529500244
1790964440674884000,1.737884033203125,4.544544295066594,1.2508756748855114,2.7574869830325244
1790964440684897000,1.74789697265625,3.9428918223589657,0.8378530921548605,1.8255451558604836
1790964440694909200,1.7579091796875,3.3844980611413717,0.05931582006067037,1.0284989981293677
1790964440704921000,1.767921142578125,2.993015694567561,-1.150852581383288,0.7145487840473651
1790964440714934000,1.77793408203125,2.220936512571573,-2.169449778701365,0.5718479938134551
1790964440724946000,1.78794580078125,1.0852028821259736,-2.4700264242082834,0.37856735542118547
1790964440734958000,1.7979580078125,0.13877426443994045,-2.1527026420399547,0.13073650393486022
1790964440744971000,1.807970947265625,-0.4895791681885719,-1.5246522840112446,0.0456575893253088
1790964440754983000,1.81798291015625,-0.7125210776120424,-1.1088649127423762,0.4083995991051197
1790964440764995000,1.8279951171875,-0.6005868893027305,-0.8791688528835773,0.44934944913089275
1790964440775008000,1.838008056640625,-0.13503916956484316,-0.8420908758550882,-0.18248510361164808
1790964440785020200,1.848020263671875,0.20764614061415193,-0.9021043227910995,-1.2081541390120982
1790964440795032000,1.858031982421875,-0.0002408230185508728,-1.1385492723882198,-1.2820455969139932
1790964440805044200,1.868044189453125,0.10198270313739775,-1.4215613273710013,-0.5689119403615593
1790964440815057200,1.87805712890625,0.2552244688689709,-1.5637769644364714,0.0695119276434183
1790964440825069000,1.888069091796875,0.2204787341803312,-1.866727645598352,0.26572423557341096
1790964440835081200,1.898081298828125,0.015273556977510452,-2.1270351168200374,0.38210079024434085
1790964440845094000,1.908093994140625,-0.2722749723911285,-2.020773128928244,0.12705226246416568
1790964440855106000,1.91810595703125,-0.5271276853382587,-2.0600904093161225,-0.8934019608974456
1790964440865118000,1.928117919921875,-0.8356155423611402,-2.180738649956882,-1.2705541888237
1790964440875131100,1.938131103515625,-0.7133242106884717,-2.02655317363441,-1.1254121429175137
1790964440885143000,1.94814306640625,-0.7357979083031415,-1.5399381159484387,-0.9273755421698093
1790964440895155000,1.958155029296875,-0.9210545224547385,-1.0216785044595598,-0.6633072571098804
1790964440905168100,1.968168212890625,-1.1039368086904287,-0.7228542555779218,-0.6143634857207536
1790964440915180000,1.978179931640625,-1.1808446918040514,-0.5913868070200086,-1.080132739254832
1790964440925192200,1.988192138671875,-0.8619938461989164,-0.5856371574521064,-2.1715262927144763
1790964440935204900,1.998204833984375,-0.18582126229703425,-0.9683101946264505,-3.063883712995052
1790964440945217000,2.008217041015625,0.6085872404068708,-1.4123586147397755,-3.084098818027973
1790964440955229000,2.01822900390625,1.0364981801897286,-1.3236071490973234,-2.5284376966446636
1790964440965242000,2.0282421875,0.7332499773859977,-0.7282075993046164,-2.2493922072052954
1790964440975254000,2.03825390625,0.03834755857288837,-0.16176117227375506,-2.1181869167149068
1790964440985266000,2.048265869140625,-0.15089432582259177,0.010417349117994308,-1.8870789442315696
1790964440995279000,2.058279052734375,0.3017120792776346,-0.04352876060307025,-2.150299672551453
1790964441005291000,2.068291015625,1.0317933634996415,-0.03601882336437702,-3.1005013790354132
1790964441015303200,2.07830322265625,1.8006828095436096,0.08845715887099503,-3.4986943491637703
1790964441025316000,2.088316162109375,1.9724691167473791,0.25110914250463245,-3.1302208099946376
1790964441035328300,2.098328369140625,1.551148076748848,0.5983589841201901,-2.614760473835468
1790964441045340200,2.108340087890625,1.038364558583498,0.9946294617533683,-1.9949749630659817
1790964441055353000,2.11835302734375,0.5575573103934526,1.1751298212885857,-1.3378399648502468
1790964441065365000,2.128364990234375,-0.07902092974483967,1.1002204185158013,-0.9600012159645557
1790964441075377000,2.138376953125,-0.8046107477664947,1.2386761185258626,-0.7633797427117824
1790964441085390000,2.14839013671875,-0.9602087212353945,1.4760036961764096,-1.0498705797210335
1790964441095402000,2.158402099609375,-0.8475275139510631,1.5737527072668074,-1.3607853716298937
1790964441105414100,2.1684140625,-0.4895709848821163,1.3738772006541489,-1.5186942523896694
1790964441115427000,2.178427001953125,-0.04419219294786453,0.7472539528191089,-1.6097019725263118
1790964441125439200,2.188439208984375,-0.3229834153652191,-0.010118658432364463,-1.289205697801709
1790964441135451100,2.198451171875,-0.7447235575586557,-0.4498036226391792,-0.6699664227381348
1790964441145464000,2.208464111328125,-1.3054858014732598,-0.44357554190456866,-0.10943506496995686
1790964441155476000,2.21847607421875,-2.4735458305060862,-0.6113906073898077,0.006330079804360866
1790964441165488000,2.228488037109375,-2.847498385608196,-1.50248604491055,-0.044449382579326624
1790964441175501000,2.2385009765625,-2.3955197570174933,-3.0015117202341557,0.05496770785376429
1790964441185513000,2.248512939453125,-2.0882786851853132,-3.2702240317076443,-0.5579318427942693
1790964441195525000,2.258525146484375,-1.7261247044265269,-2.966417025977373,-1.4887002422727644
1790964441205538000,2.2685380859375,-1.4064210413843392,-2.839389897954464,-2.1074144705489277
1790964441215550000,2.278550048828125,-1.4568901226446032,-3.6083541628003117,-2.0180919270202518
1790964441225562000,2.28856201171875,-1.3701704550907015,-4.857080550697446,-1.6630537696160375
1790964441235575000,2.298574951171875,-1.2049284549638628,-5.457424278894067,-0.7365957806825637
1790964441245587200,2.308587158203125,-1.3781485943630336,-5.207907666277885,0.03187485542744398
1790964441255599000,2.31859912109375,-1.6536217782735823,-4.514906697171926,-0.3150890088535845
1790964441265612000,2.328612060546875,-1.7761862277992069,-4.094902584990859,-1.3540766677714884
1790964441275624000,2.3386240234375,-1.3301768828764557,-4.573478713127971,-1.444009744413942
1790964441285635800,2.3486357421875,0.02359671029523015,-4.993042095804214,-0.9844004017490893
1790964441295649000,2.35864892578125,1.2431149777561425,-4.995369077447056,-0.41531690421290696
1790964441305661000,2.368660888671875,1.5509148525148628,-4.46195193657577,-0.3636048371542245
1790964441315673000,2.378673095703125,1.1560101102769373,-4.008313265818357,-0.8440214785914868
1790964441325686000,2.38868603515625,0.13951839733812957,-3.8349353055089708,-0.7220050183374435
1790964441335698200,2.3986982421875,-0.2834451126378029,-3.2958728522270917,-0.7868507077354937
1790964441345710000,2.4087099609375,-0.2845147876959294,-2.916507624426484,-0.9464083055503666
1790964441355723300,2.41872314453125,-0.26523141055516897,-2.5615824258774516,-0.15439115496240555
1790964441365735200,2.428735107421875,-0.3273160377420485,-1.9553473015546798,1.1578976045239715
1790964441375747600,2.43874755859375,-0.40078693214431405,-1.329154261830449,2.3349599282450972
1790964441385760800,2.4487607421875,-0.40154096538200973,-0.8651736452788114,3.4359520617857573
1790964441395772700,2.458772705078125,-0.40098428134731945,-0.7628197707414627,3.798628897374868
1790964441405784600,2.46878466796875,-0.3319534152191132,-1.0744856732785701,3.5081609734281893
1790964441415797800,2.4787978515625,0.0038461540341377257,-1.2217302444219589,3.048036447782814
1790964441425809700,2.4888095703125,0.30961185608413067,-0.9683663087278604,2.6655215237796304
1790964441435821800,2.49882177734375,-0.030236143743130377,-0.34255262371003625,2.170562269987911
1790964441445834800,2.508834716796875,-0.2989747632682323,0.5275771826714277,1.6507302946157751
1790964441455847000,2.518846923828125,0.026128712990880012,1.4307716387867926,1.3306769413530826
1790964441465858800,2.52885888671875,1.1884633501142263,1.7376766105324029,1.0260323157548903
1790964441475871700,2.538871826171875,2.180294705581665,1.6637077034801244,0.813441850606352
1790964441485883600,2.548883544921875,2.2182798605829475,1.3566063323795794,0.8985488222666084
1790964441495895600,2.5588955078125,2.0085989992707964,1.056139869248867,1.7576063227526844
1790964441505908700,2.56890869140625,1.7662118001431226,1.0433166280329227,2.737435544128716
1790964441515920600,2.578920654296875,1.1372393588334322,1.4857488451212644,2.9617589710384604
1790964441525932800,2.588932861328125,0.016090129490825347,2.484221538299322,3.14178879045248
1790964441535945700,2.59894580078125,-1.1374515402793883,3.238187555977702,3.214363905058801
1790964441545957600,2.60895751953125,-1.8068518535673617,3.269061417669058,3.289331467759609
1790964441555970600,2.618970458984375,-2.0139806923091412,2.992521773570776,3.465182832445204
1790964441565982500,2.628982421875,-1.6909715579807758,2.588852125597,3.5984871410414576
1790964441575994600,2.63899462890625,-1.0012661232888698,1.7987269993007182,2.9767540033355355
1790964441586007600,2.649007568359375,-0.14889284980706868,1.2345160762369631,2.383136806914955
1790964441596019700,2.659019775390625,0.4556944342434406,0.889469882145524,1.795252162797004
1790964441606031600,2.669031494140625,0.32750410766005517,0.48918110878169535,1.4896237868584692
1790964441616044800,2.679044921875,0.0517550294175744,0.046488194930553436,1.6168974369883535
1790964441626056700,2.689056640625,-0.5151997855268419,-0.3819207575023174,1.7773809905417262
1790964441636068600,2.699068603515625,-1.2209608674846588,-0.3029109336733818,1.6866028413772582
1790964441646081800,2.709081787109375,-1.3918037563584744,0.2830161466360092,1.4097871568165719
1790964441656093700,2.71909375,-0.9870129954002796,0.6316688407868146,0.8997885201293975
1790964441666105900,2.72910595703125,-0.11298325897082685,0.5201636915445328,0.6884871449433266
1790964441676118500,2.739118408203125,0.7878479751445353,0.19567980848848818,1.1038868320688604
1790964441686130700,2.749130615234375,1.2321826648533343,0.0023345804274082184,0.9790769417040049
1790964441696143600,2.7591435546875,1.7433717534340918,0.3423942182779312,-0.31243816555123777
1790964441706155800,2.76915576171875,2.0713713895261288,0.5169090736627578,-1.4534977037273347
1790964441716167700,2.779167724609375,1.661843663173914,0.47210547081828114,-1.5518220304876564
1790964441726180900,2.789180908203125,1.2578630495548249,0.4538789092540741,-1.2278494579546153
1790964441736192800,2.79919287109375,1.281218206179142,0.5101788886249065,-0.8913619795024394
1790964441746204700,2.80920458984375,1.4601719207942485,0.6342728858053683,-0.9000562311548739
1790964441756217600,2.819217529296875,1.9358803845405577,0.6034323418617248,-0.935942660311237
1790964441766229500,2.8292294921875,2.6796149310618635,0.6303162571340799,-0.8775252503950148
1790964441776242700,2.83924267578125,2.968427781277895,0.6674059246003627,-0.9525557953294366
1790964441786254600,2.849254638671875,2.918751603960991,0.852826204881072,-0.9728031951967626
1790964441796266800,2.859266845703125,2.2983576059043407,1.1216472374260424,-0.8428376025691628
1790964441806279700,2.86927978515625,1.510045081987977,1.2178940272599459,-1.136978662070632
1790964441816291600,2.87929150390625,1.2979799558877945,1.178871930426359,-0.9709105863831937
1790964441826303700,2.8893037109375,1.4198539389312266,0.9174854317963123,-0.28116748656202106
1790964441836316700,2.899316650390625,1.0821791503906248,0.7810451632618903,0.65351439656578
1790964441846328800,2.909328857421875,-0.13319851013422013,1.3934475780427455,0.6756378925032913
1790964441856340700,2.9193408203125,-1.696743127119541,1.7759715621352195,-0.2791479086342267
1790964441866353700,2.929353759765625,-3.0409283693432805,1.9587889664411544,-0.4510005773387849
1790964441876365600,2.939365478515625,-3.396837902754545,2.048220231041312,-0.15349232469284907
1790964441886378800,2.949378662109375,-2.698893047505617,2.370840073791146,0.06196495089654345
1790964441896390700,2.959390625,-2.1244985840797423,2.244120988804102,-0.1758265407715924
1790964441906402600,2.969402587890625,-2.346490645432472,2.4459540592253206,-0.2445131783057004
1790964441916415700,2.979415771484375,-3.3060125534474847,2.374634205377102,-0.8105345117922872
1790964441926427600,2.989427734375,-3.4035996519744396,2.057448078113794,-1.1199730206035077
1790964441936439800,2.999439697265625,-2.5592683037161827,1.5190297679543494,-0.6485450106553733
1790964441946452700,3.00945263671875,-1.8168565302312374,0.7911030314177274,-0.2382010360168293
1790964441956464600,3.019464599609375,-1.0177958178073168,-0.09869126037657261,0.20099724065158514
1790964441966476800,3.029476806640625,-0.19261753484103827,-1.0250228464514017,0.47271998598743226
1790964441976489700,3.03948974609375,0.7443523130934685,-1.5283569837480782,0.17033932326585052
1790964441986501600,3.049501708984375,1.4574468797445297,-1.2177104873865843,-0.38024076852612193
1790964441996514800,3.059514892578125,1.7840110762059687,-0.9975783746868372,-0.8221381480854004
1790964442006526700,3.069526611328125,1.468685628248006,-1.7840210130780934,-0.43894780903868374
1790964442016538600,3.07953857421875,0.6913866657771169,-2.5531775856256482,0.7507811040319502
1790964442026551800,3.0895517578125,0.22518654654510317,-2.7907863183051345,0.9281032719224691
1790964442036563700,3.099563720703125,-0.5427110389173031,-2.847630487555265,0.21337226317599414
1790964442046575900,3.109575927734375,-0.9070915366191417,-2.4626783995330332,-0.7448052444927394
1790964442056588500,3.119588623046875,-0.7218091304391622,-2.075265474355221,-1.2127112177945674
1790964442066600700,3.1296005859375,-0.5963912642437964,-1.3670248505413531,-0.44706290909629315
1790964442076613600,3.139613525390625,-0.9515035828627646,0.37922260445952416,0.937100232848525
1790964442086625500,3.14962548828125,-0.7632026325792074,2.12882930676043,1.877942720965296
1790964442096637700,3.1596376953125,-0.041693507999926806,3.0364468400150537,2.438086248459667
1790964442106650600,3.169650634765625,0.6049024144142866,2.7905811511218546,3.1422835882321
1790964442116662800,3.179662841796875,1.495094034963101,1.5908382821023463,3.7687493074178695
1790964442126674700,3.1896748046875,2.720962840494513,0.6736924575239419,3.8238600770041344
1790964442136687900,3.19968798828125,3.2096634722828865,0.38972354020774364,3.0111943253368136
1790964442146699800,3.20969970703125,2.405094810092449,0.9527613278388977,1.9670213727355002
1790964442156711700,3.219711669921875,0.9809719616703688,2.3063877676248548,2.292458757124096
1790964442166724600,3.229724609375,-0.5430255116939544,3.3567110595494505,3.112879506832361
1790964442176736500,3.239736572265625,-1.1954947100557387,2.9480513482034203,2.58388222822994
1790964442186749700,3.249749755859375,-0.4540869990468025,1.5078437725514173,2.150943669543415
1790964442196761600,3.25976171875,0.9658188162021338,-0.07993921363353729,2.5515096524134275
1790964442206773800,3.269773681640625,2.2642858249545097,-0.7376888366162776,2.2812181089244783
1790964442216786700,3.27978662109375,2.7394597434327004,-0.9011012832283973,1.2801914934799075
1790964442226798800,3.289798828125,2.226154539480805,-1.0863497140735388,0.9407046140160411
1790964442236810800,3.299810791015625,2.12385034930408,-0.9518635022163391,1.462568606672436
1790964442246823700,3.30982373046875,2.6208582061886787,-0.46864042505621906,1.655970679487288
1790964442256835600,3.319835693359375,2.5391017140001058,-0.16668226206302642,1.4199356258653104
1790964442266848800,3.329848876953125,2.248337875846773,0.09077391138076782,1.2183701203390955
1790964442276860700,3.339860595703125,1.659961502689123,0.8741372884571552,1.1456650957427919
1790964442286872600,3.34987255859375,-0.039703649356961246,2.1330834570735693,0.17674860578626395
1790964442296885800,3.3598857421875,-1.3126567160159348,2.6552935597538947,-1.0778791151091456
1790964442306897700,3.369897705078125,-1.1258217466317118,2.4774270558536053,-1.3623024981945753
1790964442316909800,3.379909912109375,-1.169915447641164,1.9539473716288804,-1.2543692160896955
1790964442326922800,3.3899228515625,-0.5610294434834271,0.2028594908595085,-2.0105188614174723
1790964442336934700,3.3999345703125,0.6599607231609523,-2.2166467064231634,-1.3214720367647708
1790964442346946800,3.40994677734375,1.5318886650055645,-3.926320626786351,0.6837567554205656
1790964442356959500,3.41995947265625,1.3910124598503113,-3.8548172330647703,0.8957559766776859
1790964442366971600,3.4299716796875,0.7824269730091095,-2.1064520552575585,0.2074595320008695
1790964442376984000,3.439984130859375,0.37531799823641776,-0.5345557895123958,-0.908526464793086
1790964442386996000,3.449995849609375,0.04266542177200317,-0.2661141116738319,-1.458178993411362
1790964442397008100,3.460008056640625,0.058361588075757025,-0.7973398799806832,-1.1585026577450335
1790964442407021000,3.47002099609375,1.0973311268150805,-1.9090952534675596,-0.6782203102119266
1790964442417033200,3.480033203125,2.818876686757803,-3.3642455467075107,-1.515243673544377
1790964442427045000,3.490045166015625,2.7631074532628057,-4.570519278800488,-3.2701521355152128
1790964442437058300,3.500058349609375,2.255747129189968,-4.343289316794276,-3.7879245480090376
1790964442447070200,3.5100703125,0.9243424580842255,-3.5901135727107523,-3.473365262117982
1790964442457083000,3.520082763671875,-1.9117805470287799,-3.2066192822813986,-2.6186668336242436
1790964442467095000,3.530094970703125,-4.693431372720003,-2.829931749257445,-1.8829153948113322
1790964442477107000,3.54010693359375,-5.856138934808969,-1.726294215774536,-1.9426422798909246
1790964442487120100,3.5501201171875,-5.465850161933899,0.33900340679585933,-2.722459216532111
1790964442497132000,3.560132080078125,-4.735221180701256,1.6593787343651056,-4.13007443613708
1790964442507144200,3.570144287109375,-4.340369629955291,1.8837422010242937,-3.7307872410312295
1790964442517157000,3.5801572265625,-3.6828736894726752,1.2981266708821058,-1.370571583237499
1790964442527169000,3.5901689453125,-3.7045243802666663,0.45202188321053977,0.5418155513823032
1790964442537182200,3.60018212890625,-3.7856957660436628,-0.13192425241470337,1.281911741401255
1790964442547194000,3.610194091796875,-3.4815976684123275,-0.10690730005800723,1.1286261365279555
1790964442557206300,3.620206298828125,-2.9171634579867125,0.1507230609089136,0.6370430811710656
1790964442567219000,3.630218994140625,-0.6977829426854848,0.7315987030476331,1.0876287940986453
1790964442577231000,3.640231201171875,1.480401054352522,2.3301035742551086,1.0951803785219787
1790964442587243000,3.650242919921875,4.345879917809367,3.5512031195580955,-0.9965668595567345
1790964442597256200,3.660256103515625,4.6063639146417374,3.1085926232934,-1.865425623089075
1790964442607268000,3.67026806640625,1.7560937262326477,0.33812136326432224,1.1052077054090796
1790964442617280000,3.680280029296875,0.3229214560449123,-1.0386644183129072,0.5586291774086654
1790964442627293200,3.690293212890625,1.1131074456829577,0.8152122212797402,-1.015538686530292
1790964442637305000,3.70030517578125,2.556373166796565,3.718551736575365,-0.673869567656517
1790964442647318000,3.710318115234375,1.9094623332142828,2.5857734488040207,-0.667545333071053
1790964442657330000,3.720329833984375,1.1517723265767097,0.6527087062060832,-0.19906711283922193
1790964442667342000,3.730342041015625,1.3606792809069155,0.6152753398686647,0.23119652754962444
1790964442677355000,3.74035498046875,0.21567988253124057,1.0099959577113389,0.39639878018796443
1790964442687367200,3.7503671875,-2.1486539511710405,1.0868237613260745,0.35216362488120795
1790964442697379000,3.760379150390625,-4.3294256266146895,0.5921732812225818,0.8068160027258098
1790964442707392300,3.770392333984375,-5.021148830869794,0.3450251513034105,1.456704975336045
1790964442717404200,3.780404052734375,-4.241201399716735,0.24759236655533312,1.0144869855202734
1790964442727417000,3.7904169921875,-3.340360228729248,0.1718500200897455,0.7193895020768046
1790964442737429200,3.80042919921875,-1.8423646271057426,0.7113356672197579,1.6483292248234152
1790964442747441200,3.810441162109375,-0.5399252075910568,1.479540638130903,2.7256743791863323
1790964442757454000,3.8204541015625,-0.12860767521262167,2.03011466550827,2.0687565308526157
1790964442767466000,3.830466064453125,0.34650384555384517,2.6596874107986688,0.5064359027042985
1790964442777478100,3.84047802734375,0.6757200178287923,2.8125977526187893,1.1846245026037097
1790964442787491000,3.850490966796875,1.0062601321838796,1.5151841984421013,2.953359976005554
1790964442797503000,3.8605029296875,1.7381079876869916,-0.5047773218423128,3.6433702388629317
1790964442807516200,3.87051611328125,2.5620634873926638,-1.6285329297244548,4.077348808121681
1790964442817528000,3.880528076171875,3.3626679221272466,-2.3718746775358914,4.284046854230762
1790964442827540200,3.890540283203125,2.9244752423048017,-2.7139298731178045,2.922316895227134
1790964442837553200,3.90055322265625,0.9475456390172242,-1.8465040649980307,1.5179223912343383
1790964442847565000,3.91056494140625,-1.2313352542437612,-1.3569851025640964,0.2873261187896132
1790964442857578000,3.920577880859375,-2.348590394190699,-1.257765434399247,-0.03158084091693163
1790964442867590100,3.930590087890625,-2.3089228390604255,-1.4684861601531505,-0.11344400835037231
1790964442877602000,3.94060205078125,-1.9439239902645349,-2.26984287455976,-1.5235504602491854
1790964442887615200,3.950615234375,-1.3092317100033164,-2.5081769989043474,-2.6896429886013267
1790964442897627100,3.960627197265625,-0.08340718200504779,-1.524347748106718,-2.0452710258468985
1790964442907639000,3.97063916015625,1.214167115691304,-0.16283026280999183,-1.0655933417707681
1790964442917652200,3.98065234375,2.055105606640875,1.1713193230897188,-0.01594458810687065
1790964442927664000,3.9906640625,2.5603590215623377,1.5653969668537377,0.1281730831876397
1790964442937677000,4.000677001953125,2.414955109849572,0.5405190818309784,-1.1757374317929148
1790964442947689000,4.01068896484375,2.509954529970884,-0.8380886544764041,-2.131654008792341
1790964442957701000,4.020701171875,2.9410780020594594,-1.8134826698839663,-1.9200658525541423
1790964442967714000,4.030714111328125,3.195057439303398,-2.227156409999728,-1.3076865263879298
1790964442977726000,4.040725830078125,3.1397982011571526,-2.204111049976945,-0.7625514751940965
1790964442987738000,4.050738037109375,2.532917180146277,-1.7108002940446136,-0.10531447790861129
1790964442997751000,4.0607509765625,1.1994821722567082,-1.1637713919281958,0.15555413432717322
1790964443007763200,4.07076318359375,0.15333791958242654,-0.890184167894721,-0.005578092393279075
1790964443017776000,4.080776123046875,-0.4928977912172675,-0.7258651278316974,0.053803194119036196
1790964443027788300,4.090788330078125,-0.7644161000221967,-0.1787836187452078,0.42505321226418014
1790964443037800200,4.10080029296875,-0.6249921395018696,0.6515700575649738,0.45173312939703464
1790964443047813000,4.110813232421875,-0.37086598726361986,1.4350018237024544,0.08760989439189433
1790964443057825000,4.120824951171875,0.5837950367167591,1.786257978349924,-0.24052257429957388
1790964443067837000,4.1308369140625,1.960415983121097,1.5207430016130208,-0.547565785472095
1790964443077850000,4.14085009765625,2.5790856416031716,0.654844549190998,-0.782026867775619
1790964443087862000,4.150862060546875,2.1117514768399297,-0.07047872684895992,-0.6086907007813454
1790964443097875200,4.160875244140625,1.1951178395673632,0.059170566371083255,-0.06880114902555942
1790964443107887000,4.17088720703125,0.26382541621476413,1.1301216357827186,0.8288070313900708
1790964443117899300,4.180899169921875,-0.5169388842791318,1.75122173628211,1.1600140852212906
1790964443127912000,4.190911865234375,-1.1079929522134364,2.0917472380787134,1.2359744583517311
1790964443137924000,4.200924072265625,-1.7278044742070138,1.6660872920930385,1.3991545575127005
1790964443147936000,4.21093603515625,-2.135769335156679,0.7569020711302756,1.7195497099503874
1790964443157949200,4.22094921875,-2.479061379057169,-0.1861544397741556,1.8944559027403591
1790964443167961000,4.230961181640625,-2.8124387626647946,-0.8232312770843505,1.714576597712934
1790964443177974000,4.24097412109375,-3.111559071883559,-0.48000937581062314,1.5695418115735054
1790964443187986200,4.250986083984375,-2.9425311234772202,-0.03627016777694225,0.8782833022207022
1790964443197998000,4.260998046875,-2.358595655376464,0.03674889120459556,0.3357745078772306
1790964443208011300,4.27101123046875,-0.7241368427343666,-0.13111644316315652,0.15875234584659337
1790964443218023200,4.281023193359375,0.8110689839951694,-0.6162555830776691,-0.09035247109830379
1790964443228036000,4.2910361328125,1.539202202889323,-1.0978829154789447,-0.280237621833384
1790964443238048000,4.301048095703125,1.7794149805873631,-1.375166071420908,-0.7030801723107695
1790964443248060000,4.311059814453125,1.504246624842286,-1.5650982761681078,-1.006042251649499
1790964443258073000,4.321072998046875,1.3105372396439312,-1.3825462448000907,-0.857981103426218
1790964443268085000,4.3310849609375,1.3104077680453656,-1.042510572347045,-0.5176756741210818
1790964443278097200,4.34109716796875,0.8853823205709457,-0.9710276368916034,-0.18537439531236885
1790964443288110000,4.351110107421875,0.21427403432130812,-1.0073480735510587,-0.16988222714811563
1790964443298122200,4.361122314453125,-0.26191855968013406,-1.5129630152612923,-0.5395666034117341
1790964443308135000,4.371135009765625,-0.7324655490100384,-1.9368688110560177,-0.7357631292507052
1790964443318147000,4.38114697265625,-0.9614194121994077,-1.5134499219954014,-0.515771009543538
1790964443328159000,4.391158935546875,-0.9881237331211566,-0.7329699914008379,-0.6805255184143781
1790964443338172200,4.401172119140625,-0.812143919750303,-0.1706044039428234,-1.1828133615285157
1790964443348184000,4.41118408203125,-0.31308804429471493,-0.17722528338730334,-1.4310942948698997
1790964443358197200,4.421197265625,0.25422435191571713,-0.6627583910554647,-1.3193237726897
1790964443368209200,4.431209228515625,0.930564255208522,-0.8032096487969159,-1.0677777000725268
1790964443378221600,4.4412216796875,1.152034046252817,-0.19313129304945467,-0.9217465963721275
1790964443388234500,4.451234375,0.9723745214559137,0.43754561409056186,-1.1960405073702334
1790964443398246400,4.461246337890625,0.7875583445481955,0.6413800874620675,-1.2879364085182547
1790964443408258600,4.471258544921875,0.7731593784481287,0.9551713115900754,-0.9410244205549358
1790964443418271500,4.481271484375,0.8902787143103778,1.0277537327200175,-0.640726591989398
1790964443428283400,4.491283447265625,0.8658914381593465,0.6678256113171577,-0.34740649348199365
1790964443438296600,4.501296630859375,0.8387747370444237,0.17080197234153746,-0.17204729622751475
1790964443448308500,4.51130859375,0.6479913222953677,-0.2925409308284521,-0.2777817531138658
1790964443458320600,4.521320556640625,0.07625511829331517,-1.3122604101747273,-1.1566606831401587
1790964443468333600,4.53133349609375,-1.0606232982732355,-2.0785241838902233,-2.2497779916524885
1790964443478345700,4.541345703125,-1.3610719334863126,-2.096033537095785,-2.4150889653623104
1790964443488358400,4.5513583984375,-0.9115649557061493,-0.9589783026576042,-0.8714438115894794
1790964443498370600,4.56137060546875,-0.38132571421861644,0.2297042431652546,0.9880828165888785
1790964443508382500,4.571382568359375,-0.09692483522593974,0.41395606418848035,2.2627897411778566
1790964443518395600,4.581395751953125,0.8730668827466667,-1.3549755163073538,1.2906576501756906
1790964443528407600,4.591407470703125,1.6001280884951352,-2.93710442225337,-0.36517683571130033
1790964443538419500,4.60141943359375,0.10303016636371612,-0.8332406299233436,0.6613222207725048
1790964443548432600,4.6114326171875,-0.9726543613106011,0.7349123576402664,1.1631012375816703
1790964443558444500,4.621444580078125,-0.16540215912461279,0.9126654642939567,1.0015724127590655
1790964443568457700,4.631457763671875,0.528305423880741,0.7370160519212484,0.8692351956292986
1790964443578469600,4.6414697265625,0.801958187431097,0.18270634514689443,0.33492022913545366
1790964443588481800,4.651481689453125,1.061714454510808,0.30556700114011764,0.10659019693285227
1790964443598494500,4.661494384765625,0.41707039681673047,0.7617898431718348,0.5999784020155667
1790964443608506400,4.67150634765625,-0.7099819875884801,0.3185223443031311,0.9510755667090416
1790964443618519600,4.68151953125,-0.18206220202445983,0.07306056003570556,0.32645839799940585
1790964443628531500,4.691531494140625,2.9844863511532544,-0.2341957093656063,-4.442353502136469
1790964443638543600,4.701543701171875,-1.009830026559904,-0.33933775331676,-3.5316017625093457
1790964443648556500,4.711556640625,-1.8822949248254297,-1.3319026837557553,-0.489317886903882
1790964443658568700,4.721568603515625,1.5586849019944666,-1.355741824504733,-0.12452946598827838
1790964443668581400,4.731581298828125,1.247823301577568,-1.3055652964502573,0.2424588030591607
1790964443678593500,4.741593505859375,-0.18546528846621513,-1.9609131189882754,-0.32222295238673687
1790964443688605400,4.75160546875,-0.24311200627088544,-2.5134154840797183,-0.6848796219706534
1790964443698618600,4.76161865234375,0.5179518607139587,-2.3107325188308954,-0.5950742633610964
1790964443708630500,4.771630615234375,0.6053004738211631,-2.0319699379861356,-0.17998831835985182
1790964443718642400,4.781642333984375,0.45946460043191906,-1.5787480313360691,0.01111176112294197
1790964443728655600,4.791655517578125,0.18129530930519103,-0.8181453521221875,0.14342822772562502
1790964443738667500,4.80166748046875,0.07667407435774802,-0.34594811136722564,0.34029169304072854
1790964443748680700,4.8116806640625,0.12768529967069625,-0.3877116158634424,0.7270186817809939
1790964443758692600,4.821692626953125,0.01377484285235405,-0.6862678614586591,1.1718071066066622
1790964443768704800,4.831704833984375,-0.6424596263270824,-0.5653583395332098,1.5887506621733307
1790964443778717400,4.841717529296875,-1.1212392411470413,0.26142040089964863,1.0336936441630125
1790964443788729600,4.8517294921875,-1.1147546283680945,0.7050327676832675,0.2353974863708019
1790964443798742500,4.861742431640625,-1.8646540541946888,0.725060241189599,0.16088088230788708
1790964443808754400,4.87175439453125,-2.876178536647558,0.7738368393182754,0.5318517912507057
1790964443818766600,4.8817666015625,-2.985796264708042,0.8391051380425691,0.8938198940485715
1790964443828779500,4.891779541015625,-2.4776293004274366,1.162244036230445,1.2476938299790024
1790964443838791700,4.901791748046875,-1.6552280444264411,1.4856553216189146,1.1874527117669582
1790964443848804400,4.911804443359375,-1.2997931427896021,1.566021236231923,0.8458543200418353
1790964443858816500,4.92181640625,-0.9466834692299365,1.3155910159021615,0.1705059120044112
1790964443868828400,4.931828369140625,-0.29608137991428374,1.6648691484749316,-0.38365883334130046
1790964443878841600,4.941841552734375,-0.18569206469310445,1.5884920112371443,-0.8739426426678896
1790964443888853500,4.951853515625,-0.5465349811196327,1.3082266246140002,-0.9098691115736961
1790964443898866700,4.96186669921875,-0.20823709224462508,1.0205559301704168,-0.1592170407488942
1790964443908878600,4.971878662109375,0.3585632627904415,-0.03971533979475498,0.509430116084218
1790964443918890500,4.981890380859375,1.2617536272525787,-1.2312217108666896,0.3640598143801093
1790964443928903700,4.991903564453125,2.2075427779912946,-1.4242799386799334,-0.7234934302642941
1790964443938915600,5.00191552734375,2.4216332724392413,-0.07989011379480361,-1.624192562432587
1790964443948927700,5.011927734375,2.4662720401108262,1.4708143108397722,-2.2571093574538827
1790964443958940400,5.0219404296875,1.3587176254451274,1.7897580954253673,-2.38921305808872
1790964443968952600,5.03195263671875,0.361844768679142,1.706396506127715,-1.549618675224483
1790964443978965500,5.041965576171875,0.39613399177193637,1.6400766525238752,-0.30680326493680476
1790964443988977700,5.051977783203125,0.15744447811841963,1.8486299711108207,0.574988629926741
1790964443998989600,5.061989501953125,-0.8329086214900017,2.016920252892375,1.4857517677307128
1790964444009002500,5.07200244140625,-1.2965291725575923,1.772512946113944,3.004687427660823
1790964444019014700,5.0820146484375,-2.3553379687547684,1.0675345389664173,3.8000861104458568
1790964444029027600,5.092027587890625,-2.2165923458874226,0.5908990235030651,3.4661651214808225
1790964444039039500,5.10203955078125,-0.992485435461998,0.1840980917662382,3.006275865896046
1790964444049051600,5.1120517578125,0.23738595677427946,-0.04383972624838352,2.6759990786522625
1790964444059064600,5.122064697265625,0.8288497745532541,-1.053500752916932,2.016804225297272
1790964444069076500,5.132076416015625,0.5442155982613563,-2.2169430590212342,1.4517214878350495
1790964444079089700,5.142089599609375,0.2878396212697029,-3.6748850288063286,0.5834396474078297
1790964444089101600,5.1521015625,0.9487305379528552,-5.232355294314027,-0.7015458023503423
1790964444099113500,5.162113525390625,1.543320159602165,-5.820114850747585,-1.4605018834009766
1790964444109126700,5.172126708984375,1.5909423269987106,-5.340431638151407,-1.751962325516343
1790964444119138600,5.182138671875,2.0193946801818905,-4.245374301487207,-1.1693345790132879
1790964444129151500,5.1921513671875,1.8734160373210906,-2.402694763213396,-0.3509495729163289
1790964444139163400,5.202163330078125,0.5524469085771591,-0.20085808790922163,-0.19519436305910348
1790964444149176600,5.212176513671875,-1.4337071077167987,1.4855156208872795,-0.5439858811587095
1790964444159188500,5.2221884765625,-1.9472540114700794,2.4808020852446555,-1.270857847945392
1790964444169200600,5.23220068359375,-1.293467446899414,3.5917543256551023,-1.6108806609168649
1790964444179213600,5.242213623046875,-1.0922399411559105,3.631600598353147,-1.4374112229317426
1790964444189225700,5.252225830078125,-0.7396457428377121,2.817908133986592,-1.4097110228404401
1790964444199237600,5.262237548828125,-0.727728510550782,1.9068495203673839,-1.38210025459826
1790964444209250600,5.27225048828125,-1.544860959303379,1.0991951671212912,-0.7172057282969355
1790964444219262700,5.2822626953125,-1.9664590626776217,0.1689355939477682,0.2714016966879368
1790964444229275400,5.292275390625,-1.7430349226951598,-0.7343523856699467,0.6801236596152186
1790964444239287600,5.30228759765625,-0.7481120309531688,-1.396542621448636,0.7323959909051656
1790964444249299500,5.312299560546875,2.1079554455578324,-0.5972878477573395,0.30209055720120664
1790964444259312600,5.322312744140625,4.288752839964628,0.972747884812951,-0.3841358032032847
1790964444269324500,5.332324462890625,3.3946284100115296,1.110857547864318,-0.6527148436859249
1790964444279337700,5.342337646484375,0.8083247998535633,0.4918009358912706,-0.4997872584700584
1790964444289349600,5.352349609375,-0.8046142548978328,1.2803566209137438,-0.6015457974627614
1790964444299361500,5.362361572265625,-0.7603472431480884,1.112449785491824,-1.3658236580580472
1790964444309374500,5.37237451171875,-0.17287589253876356,0.036674656924605364,-1.1422101329833267
1790964444319386400,5.382386474609375,0.038368053371645505,-0.03505085511505603,-0.5659840702161193
1790964444329399600,5.392399658203125,-0.8610591956973075,0.14352876549065113,-0.1997270380526781
1790964444339411500,5.402411376953125,-1.286102471089363,1.3924568134397268,0.9109368869356811
1790964444349424600,5.412424560546875,-2.1012790365338323,1.5883891353845596,1.9408320155985652
1790964444359436500,5.4224365234375,-2.3469559248566627,1.2185253109008074,3.7876360864564775
1790964444369448700,5.43244873046875,-1.124239007484913,1.7206868972867726,4.042428301388025
1790964444379461000,5.442461181640625,1.0991793850302696,0.7531973713934421,3.1181331895768643
1790964444389473000,5.45247314453125,4.177265810900926,-2.7733336637228727,2.635661223044991
1790964444399486000,5.46248583984375,2.0958757161855694,-6.6398734832853075,0.2784188819736242
1790964444409497900,5.472497802734375,0.027543253680632915,-6.706171709579229,0.021552783377468583
1790964444419509800,5.482509765625,0.8790151236265897,-3.9067835671454665,1.4634303380683065
1790964444429523000,5.49252294921875,1.6022726993083953,-1.5120079064935446,1.0060317302554844
1790964444439534800,5.502534912109375,1.2148849085718392,-1.1240531295239924,0.04080401181429624
1790964444449548000,5.512548095703125,0.7229068625479936,-0.6942810720443725,-0.8656441854000091
1790964444459560000,5.522559814453125,-0.3465589367419481,0.47178398377895353,-1.0958934952273964
1790964444469571800,5.53257177734375,-0.6881593742936849,1.4351356792151928,-1.3821759501829742
1790964444479585000,5.5425849609375,0.16851181557774542,1.8803093039661645,-1.854498570883274
1790964444489597000,5.552596923828125,1.5019032765865326,1.2828455151200293,-1.597888785135746
1790964444499609900,5.56260986328125,1.3641969336390494,0.3768096980988979,-1.1234633469372988
1790964444509621800,5.572621826171875,-0.11203647964000701,-0.9313952992051839,-0.08947422695904969
1790964444519634000,5.582634033203125,-1.2543126635968684,-2.2910364692360163,0.3910606340304017
1790964444529646800,5.592646728515625,-1.3407125976771115,-4.058381072801351,0.9505991813689469
1790964444539659000,5.602658935546875,0.49716333970725535,-4.84045557911098,1.1938131867095827
1790964444549672000,5.612671875,2.4227257438510654,-1.5165443808794021,1.5575924305826425
1790964444559684000,5.62268408203125,2.032884130221605,3.675544954019785,1.0816130409404634
1790964444569696000,5.632696044921875,-0.09486322652101516,6.944426338946819,0.3274864258728921
1790964444579709000,5.642708984375,-2.408778467041254,6.617498569869995,-0.14941168604940175
1790964444589721000,5.65272119140625,-2.5876854199051857,4.958576347100735,-0.08015402542799711
1790964444599733800,5.662733642578125,-2.1629390816330907,2.620046889805794,0.09906944603919983
1790964444609746000,5.672745849609375,-1.2015490416586398,0.17573007639348506,0.6778427090711892
1790964444619757800,5.6827578125,-0.2808966337313875,-0.8742208750873803,1.627594479830563
1790964444629771000,5.69277099609375,-0.559210922819376,-1.8625871847927569,1.0315643770493566
1790964444639783000,5.702782958984375,-0.7915186264812946,-3.740137545439601,-0.030950434058904647
1790964444649796000,5.712796142578125,-0.07453002980006858,-4.729154428008198,-1.1543429077170788
1790964444659808000,5.72280810546875,1.779403874671459,-2.732351080471277,-1.5372082525931299
1790964444669820000,5.73281982421875,2.8671277997076507,0.09361118063330649,-1.2309928705468773
1790964444679832800,5.742832763671875,2.3893209023773667,0.7154121228784323,-1.5035921064563094
1790964444689844700,5.7528447265625,1.2205495102047919,-0.05637187556326389,-1.279100337242335
1790964444699858000,5.76285791015625,0.6866904707849025,-0.45157823109626766,-0.763102679336071
1790964444709869800,5.772869873046875,0.686488226211071,-0.73255556538105,-0.7818520957306027
1790964444719883000,5.782883056640625,0.28562775390651074,-0.4305553168118,-1.1820242569774388
1790964444729895000,5.79289501953125,-0.4224901203105226,0.7862140903323889,-1.0156029839381575
1790964444739907000,5.802906982421875,-1.3539911814451218,1.9773866994053124,-0.6321081089869142
1790964444749920000,5.812919921875,-1.8283073140501975,1.8541157090455294,0.6069944913227111
1790964444759932200,5.82293212890625,-3.2715175786495205,-0.9583253917068243,2.154663712979853
1790964444769944800,5.83294482421875,-3.9700913794517514,-4.714128708311915,3.4091026333048937
1790964444779956700,5.842956787109375,-2.3555016348838804,-6.022722412672638,3.2321400925070045
1790964444789969000,5.852968994140625,-1.0702771156728268,-5.330442743578553,0.888325169089809
1790964444799981800,5.86298193359375,1.194159515929222,-2.99176832485497,-2.1960081152811646
1790964444809994000,5.872993896484375,3.7958699540555476,0.7013806749165058,-3.900915844155848
1790964444820007000,5.8830068359375,4.497793065285682,4.551239408791065,-4.096148785659671
1790964444830019000,5.89301904296875,3.8155508060812946,7.976250682106613,-2.668872587773204
1790964444840031000,5.903031005859375,1.607948406857252,8.025694804233312,-0.49060361586548384
1790964444850044000,5.9130439453125,-1.0852490593552588,4.535469008207321,2.1595352645389734
1790964444860055800,5.923055908203125,-1.5006675973117352,1.8944535646528005,3.8636832610875365
1790964444870069000,5.933069091796875,-1.927225953441858,1.003348774781823,4.151463553385437
1790964444880081000,5.943080810546875,-2.2110756282925603,0.35752164478302,3.3648797529578207
1790964444890092800,5.9530927734375,-0.8297427778702229,-0.01391688167154789,2.073008927600086
1790964444900106000,5.96310595703125,-0.9093336895227432,-0.11067805076837539,0.7624572941046208
1790964444910118000,5.973117919921875,-1.3027835567772388,0.1990156749129295,-0.46447859266903246
1790964444920131000,5.983131103515625,-0.6185995158553124,0.12934300374984742,-0.6812629658434539
1790964444930143000,5.99314306640625,-0.846515122038126,0.5150608154475689,-0.8487165776051581
1790964444940155100,6.003155029296875,-1.994780317276716,0.3964923036903143,-0.14863273756615816
1790964444950167800,6.013167724609375,-2.19818925871253,1.0006471146076916,0.8671496945921331
1790964444960180000,6.023179931640625,-1.2631681702256201,1.373598968234658,2.400259498890489
1790964444970193000,6.03319287109375,0.24505846416354177,1.5634014091223478,3.1560408954277634
1790964444980204800,6.043204833984375,0.5091092135667801,1.9897920074701307,1.4978930180318653
1790964444990217000,6.053217041015625,0.2657563842773437,1.7773329136162994,0.6204509889408946
1790964445000230000,6.06322998046875,1.3849766868174076,0.914138459455967,0.0896005567524582
1790964445010242000,6.073241943359375,2.4564532414078712,0.09912205300927161,-0.03829663210324943
1790964445020255000,6.0832548828125,2.3919611877530813,-0.39475101298093795,-0.7144696543965489
1790964445030267000,6.093266845703125,1.5935487101048231,-0.5069990895450115,-0.9471738100301473
1790964445040279800,6.10327978515625,0.8510317226797341,-0.4258955083072185,-0.6429958520956337
1790964445050292000,6.1132919921875,-0.011299958905111998,-0.3633616029828787,-0.5728821591667831
1790964445060304000,6.123303955078125,-0.5406809943944215,-0.5698726020872592,-0.8844887327320873
1790964445070317000,6.133317138671875,-1.1901304065436125,-1.1691034006059169,-1.3906195150099694
1790964445080329000,6.143328857421875,-2.663469267424941,-3.421356842461228,-2.4913825159698724
1790964445090342100,6.153342041015625,-3.439665821611881,-3.8766491256445645,-2.1837623816922305
1790964445100354000,6.16335400390625,-3.5342806263297795,-1.3371803318977356,-1.1501800158839672
1790964445110366000,6.173365966796875,-1.9373773451000451,1.4636065714180468,-0.047072351494058966
1790964445120379000,6.18337890625,1.9580290879845619,2.1391367657631633,0.6350347370233387
1790964445130390800,6.193390869140625,5.735222398620843,2.857567944201827,2.137638051638007
1790964445140404000,6.203404052734375,10.021817183768748,0.08683072671294212,2.320959021551907
1790964445150416000,6.213415771484375,3.9029888510376214,-2.8755998599767683,1.8070552671849727
1790964445160428000,6.223427978515625,-4.985172093081474,-3.02151522834301,2.595672911527753
1790964445170441000,6.23344091796875,-9.37943171865642,0.37604572798907754,1.3106380696699023
1790964445180452900,6.243452880859375,-3.9353766244232653,1.0194517683207989,-2.1067532301612197
1790964445190466000,6.253466064453125,-0.6275631590336561,0.6666694270193576,-2.090716141465306
1790964445200478000,6.26347802734375,0.17592702373769134,-0.32546471078693867,-0.7335278444793075
1790964445210490000,6.273489990234375,0.8825631714969873,-1.6120178482532501,1.079292927429825
1790964445220502800,6.283502685546875,0.8367308101266622,-1.5456313591539859,2.5694983135685323
1790964445230515000,6.293514892578125,0.08775894747376442,-0.6757505590975285,2.0945184563577173
1790964445240528000,6.30352783203125,-1.2036585811585188,0.27320260863006113,0.528064235536009
1790964445250540000,6.3135400390625,-1.6323410898357629,0.8617477624833584,-0.4328722885172814
1790964445260553000,6.323552978515625,-0.7926865012168883,0.7547755804955959,-0.10348726248145103
1790964445270565000,6.333565185546875,0.07275017891228198,0.4145148671150207,-0.16998627204447983
1790964445280577000,6.343576904296875,0.06134973704107105,0.5709557211488485,-0.9645558105289935
1790964445290590000,6.35358984375,0.044345337682962414,-0.7717547723472118,-0.4195670359380543
1790964445300601900,6.363601806640625,-0.2868430114477873,-0.8009393657773732,-1.1643686271689833
1790964445310614800,6.37361474609375,0.016559505134820938,-0.9672025256454944,-1.157959417713806
1790964445320627000,6.383626953125,0.5930448033601046,-0.5323930585205555,-1.4617346400663256
1790964445330638800,6.393638916015625,0.8079306859694421,1.334197516694665,0.3938404740072787
1790964445340652000,6.403652099609375,2.171281816434115,0.7899146984159946,0.6048061144329607
1790964445350664000,6.413663818359375,2.373523467656225,-0.4761982930898666,0.08291472231298684
1790964445360677000,6.423677001953125,0.9323596141926944,-0.2957090394705534,0.7151590249001979
1790964445370689000,6.43368896484375,-0.6369868209391832,-0.44477322725653645,-0.38210539335422217
1790964445380701000,6.443700927734375,-2.0135902316868304,-1.522579569390416,-1.9192510290399192
1790964445390713900,6.4537138671875,-2.5970383546620606,-0.5022410813629626,-1.4992799423456191
1790964445400725800,6.463725830078125,-1.6408908915162086,1.065934702554345,0.094473277355358
1790964445410739000,6.473739013671875,0.17972053426913917,1.1342185497075319,0.9289445450522005
1790964445420750800,6.483750732421875,1.3911829941116272,-0.07195172201097011,0.6250665929775685
1790964445430762800,6.4937626953125,1.7792606668084858,-0.8935229569286107,-0.5199205304384231
1790964445440776000,6.50377587890625,1.0709936664443462,-0.6453887385815381,-1.2700911013565956
1790964445450787800,6.513787841796875,0.022380320242792368,0.05874035826027393,-1.0486222601603716
1790964445460800800,6.52380078125,-0.37386779942810533,0.5080097278922796,-1.0289744336213915
1790964445470812700,6.533812744140625,0.2558486651819199,0.3685580025821924,-0.07951682350300252
1790964445480825900,6.543825927734375,2.579986097574234,-0.05816343515515327,1.4295812599584459
1790964445490837800,6.553837646484375,2.2551044473722577,0.405670466402173,1.9751164163857697
1790964445500850000,6.563849853515625,0.3719077514015138,0.8056687323868275,1.9301959091633558
1790964445510862800,6.57386279296875,-0.6899130130279809,0.3933803091496229,0.7191461217749864
1790964445520874800,6.583874755859375,-1.9723317541033027,-0.28322014477550983,-1.1659327346805481
1790964445530888000,6.593887939453125,-2.7401626310050484,-0.3389607366979122,-2.068209710624814
1790964445540899800,6.60389990234375,-5.400940175127983,-0.4754699788153171,-2.609396900975704
1790964445550912000,6.613912109375,-2.580015323668718,-0.8634557354450225,-3.2964994596928356
1790964445560924700,6.623924560546875,2.0044757818609473,-1.1503788263916968,-1.9495029594406483
1790964445570936800,6.633936767578125,3.610823183262348,0.9276187032759189,4.505352686884999
1790964445580949800,6.64394970703125,0.41303851095214483,1.2796622089087963,3.8074791433066126
1790964445590962000,6.6539619140625,-0.850478180450201,-0.08834463840723038,0.661751332904771
1790964445600973800,6.663973876953125,0.11141381769701837,0.09812193605601786,0.6734863404925913
1790964445610987000,6.673987060546875,0.7427529881380498,0.459725881716609,-1.0785262539062648
1790964445620999000,6.6839990234375,1.1851970417946576,0.14499065473675726,-2.6436712187603115
1790964445631011800,6.69401171875,1.4448185765787958,0.012677110743522643,-1.8750018452078103
1790964445641024000,6.70402392578125,1.1198648840539156,0.41678456561267374,-0.6924659854464232
1790964445651036000,6.714035888671875,0.578210660713166,-0.00041442601978778834,-0.9349729384962469
1790964445661048800,6.724048828125,0.5181083664499223,-0.9967664737820625,-0.07199336919561028
1790964445671060700,6.734060791015625,0.08561667474806309,0.2177390800833702,1.5140274296224117
1790964445681074000,6.744073974609375,0.3459722228951752,0.45227615023255346,0.6069219375431537
1790964445691085800,6.7540859375,1.6260545569121836,-0.32154315342903134,0.019331965522840618
1790964445701099000,6.76409912109375,3.151943689242005,-0.527567245799303,0.08593355867750942
1790964445711111000,6.77411083984375,3.702878366625309,-1.0638999818563462,-0.06558057954385876
1790964445721122800,6.784122802734375,2.8747207390546796,-0.9042045099407434,-0.2901438065588474
1790964445731135700,6.7941357421875,0.1865033993422985,-0.6101940910816193,-0.0755572722222656
1790964445741147600,6.804147705078125,-2.0707225702285768,-0.7513970439732074,0.028592838082090018
1790964445751160800,6.814160888671875,-2.9745442183315753,-0.4866635730028152,-0.6339443845033645
1790964445761172700,6.8241728515625,-3.1739369098633525,0.0025736498802900313,-0.47996743636503814
1790964445771185000,6.834184814453125,-2.993580927234888,0.9322036929786205,0.9138544548828155
1790964445781197800,6.84419775390625,-2.296850123950839,1.4293313768506049,1.5440297691762446
1790964445791210000,6.8542099609375,-2.939284688901901,-0.66892158986032,0.8369152998480945
1790964445801223000,6.864222900390625,-0.6378717870801687,0.661799190634489,-0.007507818346843123
1790964445811235000,6.874235107421875,-1.3734078295767307,0.586494066542387,1.2084520259801297
1790964445821247000,6.8842470703125,-3.0193729556173086,-1.1800503265559672,1.910243546719849
1790964445831260000,6.894260009765625,-3.3081741153955457,-1.490764627456665,1.2303943201318384
1790964445841271800,6.904271728515625,-2.1054531073480844,-1.2482821512609719,1.118205280278623
1790964445851284700,6.91428466796875,-0.42052316761910913,-1.3838666797488928,1.5547478548064828
1790964445861297000,6.924296875,0.31633900891467925,-1.6326047092080116,1.7980505613438784
1790964445871308800,6.934308837890625,0.10041823029965162,-1.3894132079601287,0.9201196527574211
1790964445881322000,6.944322021484375,0.5069447290092707,-0.7985948484778403,-0.5568417094700038
1790964445891334000,6.954333984375,1.8579326369851827,0.0967091466486454,-1.185325052088499
1790964445901346800,6.964346923828125,2.261553623511642,0.6058867492765188,-1.7975313597753644
1790964445911358700,6.974358642578125,2.1011142013609407,0.8054004368394613,-0.9712847534578293
1790964445921372000,6.984371826171875,1.8775804635241626,0.6432844597786664,-0.47993185359500345
1790964445931383800,6.9943837890625,1.8495117223814128,0.11050152515769004,-0.027484657644480465
1790964445941395700,7.004395751953125,1.9884478993847965,-0.12008943771421908,0.3723769032832235
1790964445951409000,7.014408935546875,1.3663485587149857,0.04134615586698055,0.6905844825487584
1790964445961420800,7.0244208984375,0.6876394420728087,0.38263387420773504,0.636156726790592
1790964445971434000,7.03443408203125,-0.774003720317781,0.30880642145276066,-0.8224782667599618
1790964445981446000,7.04444580078125,-0.1263882455974817,-0.7801976065218448,-0.30547318537682294
1790964445991458000,7.0544580078125,1.9675190931245683,-0.8841483948618173,0.7176265840575099
1790964446001470700,7.064470703125,3.3603245738714933,-0.288078106200695,-0.1938658909343183
1790964446011483000,7.07448291015625,2.602015850813687,0.6159937172710895,-0.258676362888515
1790964446021495800,7.084495849609375,-0.7754298075981437,-0.22135259440541266,0.3626949557676911
1790964446031508000,7.094508056640625,-1.3415852888584137,-0.5454325728356838,0.0878594852387905
1790964446041519900,7.104519775390625,-0.5230217113241553,-0.10347849465310573,0.08806611372679471
1790964446051532800,7.11453271484375,-0.15319354267567395,-0.11047113001942634,0.44651714831441636
1790964446061545000,7.124544921875,0.3276142900362611,-0.14870236873626708,0.3303808321401477
1790964446071558000,7.134557861328125,-0.15450170266479252,0.1411415780931711,-0.32815570343658323
1790964446081569800,7.14456982421875,-0.40852030287533997,0.781750681182742,-0.4988730662345886
1790964446091582700,7.154582763671875,-0.8205117889925837,1.0267875180363655,-0.6441062975555658
1790964446101595000,7.164594970703125,-0.5037812965422869,0.40233518449962136,-0.1631520421102643
1790964446111606800,7.174606689453125,-0.9931453606754541,0.8278150977432728,0.058456134491413826
1790964446121620000,7.184619873046875,-1.234069647643715,0.9825655144721269,-0.03772635793462396
1790964446131631900,7.1946318359375,-0.8563399120904505,0.3198199828982353,0.2330151212789118
1790964446141645000,7.20464501953125,-0.4110284863039851,-0.3250561299860477,0.3323118002027273
1790964446151657000,7.214656982421875,-0.29612317322939635,-1.0817179626196622,0.2701009893529117
1790964446161668900,7.2246689453125,-0.33403175586313005,-1.3185334990948439,0.2950859391361475
1790964446171681800,7.234681884765625,-0.34101065496504307,-0.745942870220542,0.37671807429268955
1790964446181693700,7.244693603515625,-0.8675570332840085,-0.005346037203073501,0.45339463286846876
1790964446191707000,7.254706787109375,-1.2680420598722995,0.6443553038805723,0.11463935561478138
1790964446201718800,7.26471875,-1.3516025327429175,1.1045733530282973,-0.17011282103359698
1790964446211731000,7.27473095703125,-0.9751710203066468,1.4176181427031755,-0.503240029272437
1790964446221743900,7.284743896484375,-0.725573159147799,1.4099585678607225,-0.5898946687661111
1790964446231755800,7.294755859375,-0.3085406101234257,0.35880057867765425,-0.2544074533976614
1790964446241769000,7.30476904296875,0.5428431408643722,-0.11614274591505527,-0.376379636118561
1790964446251780900,7.31478076171875,0.7735346415013075,0.2821908017277717,-1.0622186046406625
1790964446261793000,7.32479296875,0.8325988248884677,0.2902139491856098,-1.6500180546931922
1790964446271805700,7.3348056640625,1.5839742415517568,-0.12309212666153907,-1.572879869955033
1790964446281817900,7.34481787109375,2.0549473473392426,-0.6800964793473482,-1.3570922162003813
1790964446291830800,7.354830810546875,2.14112063305676,-1.3852736239373684,-1.2506934501864015
1790964446301843000,7.364843017578125,2.322951948934793,-2.128208544513583,-1.203057400394976
1790964446311855900,7.37485595703125,2.663271991287172,-2.208926341304183,-1.2989539154864846
1790964446321868000,7.384867919921875,2.6349229718983174,-1.5498855094671249,-1.2106069389916956
1790964446331880000,7.3948798828125,1.7005840204566716,-0.2592185069411993,-1.395572168981284
1790964446341892900,7.404892822265625,0.6490002070769667,0.6315326471865177,-1.484334302148223
1790964446351904800,7.41490478515625,-0.13733444089516997,1.00809158539474,-0.9149540136225521
1790964446361917700,7.424917724609375,-2.680840088942647,1.0517302361130714,0.23451566203497348
1790964446371929900,7.434929931640625,-5.120469036799669,0.6774708070188761,1.5519824817463754
1790964446381941800,7.444941650390625,-6.019816169837116,-0.06279109495580196,2.6469465871691704
1790964446391955000,7.454954833984375,-4.771906359019876,0.012368483185768126,2.7036817430868743
1790964446401966800,7.464966796875,-3.252311358398199,0.6505243479043245,2.3577301245883104
1790964446411980000,7.47497998046875,-1.2974267059192062,1.0763725099384784,1.605160237443447
1790964446421992000,7.484991943359375,1.0340905345261096,0.7409983995556831,0.689304818001762
1790964446432003800,7.49500390625,1.5575971067577599,-0.09500000464320182,0.22833616968244314
1790964446442016800,7.505016845703125,1.499295139914751,-1.1896014142334461,0.6538689821571111
1790964446452028700,7.515028564453125,1.8486787786886094,-1.5073545277297495,0.6585806669794023
1790964446462041900,7.525041748046875,2.2394237708985805,-1.080985556691885,0.7334599668748676
1790964446472053800,7.5350537109375,2.6970681701660153,0.013897007927298545,0.00857289029508829
1790964446482067000,7.54506689453125,3.231492149992287,1.268789517238736,-2.4618778968051074
1790964446492078800,7.555078857421875,4.395056913432478,1.6320494134128092,-2.9023779767870903
1790964446502091000,7.565091064453125,2.7783389246642587,0.6450976466804742,-2.470776658053696
1790964446512103700,7.575103759765625,0.34878698805496094,-0.48579088182151314,-1.4384366204567254
1790964446522115800,7.58511572265625,-1.3134692014425993,0.32211890749037264,-0.056296618369966744
1790964446532128800,7.595128662109375,-2.0625912862211466,0.5473609105497599,0.6389658659271895
1790964446542141000,7.605140869140625,-2.154258931571245,0.560669304934144,1.0336856069870293
1790964446552152800,7.61515283203125,-1.8455851965874432,0.7549035907894373,0.8752699457488954
1790964446562165800,7.625165771484375,-1.8083663497835396,1.0894307289540768,0.9435159451097249
1790964446572178000,7.635177978515625,-1.75535284473747,0.40958734758496285,0.35045112187489863
1790964446582190800,7.64519091796875,-0.7455898189991712,0.04298749333322048,0.2789744700297713
1790964446592203000,7.655203125,0.3251671891450882,0.1865478230059147,0.2144979062050581
1790964446602215000,7.66521484375,-0.8971972615271806,0.4414163180440664,0.4695831127338111
1790964446612227800,7.675227783203125,-1.3459250716283917,1.6344097128033637,1.3805693917691706
1790964446622239700,7.68523974609375,-0.605061988890171,1.9140882394492624,1.6752312602743507
1790964446632253000,7.6952529296875,-0.6222177063524723,2.154824164238572,1.6216363020785152
1790964446642264800,7.705264892578125,-0.4423553524598479,2.2471558264553546,1.3872440472275018
1790964446652278000,7.715278076171875,-0.13832257514968513,1.3280892629474401,1.3809144058145582
1790964446662290000,7.7252900390625,0.1017284361153841,0.799044930332899,1.4396797523856162
1790964446672301800,7.7353017578125,3.0132144329875707,-0.8119020738184451,0.32415143623128534
1790964446682314800,7.745314697265625,2.0203816453926264,-1.7023130362063645,-1.2160405083477497
1790964446692327000,7.755326904296875,-1.5491694701522587,1.5520686987251042,0.510992835356295
1790964446702339800,7.76533984375,-0.7289312374040484,1.235765784037113,1.8315815134152769
1790964446712351700,7.775351806640625,-0.7202393969044089,-0.04092939175963402,2.2272896809905767
1790964446722364000,7.785364013671875,-0.5471741558060049,-0.7353793906301259,1.5040633772298693
1790964446732376800,7.795376953125,-1.1930097613722086,-1.6319868695706128,0.027606092067062854
1790964446742389000,7.805388916015625,-2.0394336979955434,-2.7475048104614017,-2.5979414409816264
1790964446752402000,7.81540185546875,-1.098839193290472,-3.513050791296363,-3.9836867740839716
1790964446762413800,7.825413818359375,-0.11850158400088548,-1.449312673127651,-0.731097183266282
1790964446772426000,7.835426025390625,0.37292496562004085,0.30951720007061956,1.4722574953854084
1790964446782438700,7.845438720703125,0.8414037703737616,0.7045709953904151,2.6094989000454545
1790964446792450800,7.855450927734375,1.282721011957526,0.4978489838838577,3.0830256358385086
1790964446802463700,7.865463623046875,1.6930621005192399,0.04409691587984561,2.6277245848268267
1790964446812476000,7.875475830078125,1.6128940465658903,-0.2327759056955576,0.9799186532251536
1790964446822488800,7.88548876953125,0.5503735363692045,-0.4035241020232439,-0.49938525354042645
1790964446832501000,7.8955009765625,-0.512462615647912,-0.16786591888964175,-0.18784049316495655
1790964446842513000,7.905512939453125,-0.786558665986359,0.03534311605989933,0.36402591211050744
1790964446852525800,7.91552587890625,-0.40570115380138155,0.14397767830193042,0.21690219086781143
1790964446862538000,7.9255380859375,0.13963906457573175,0.13173603636622427,0.053458180073648685
1790964446872551000,7.935551025390625,0.28883184717744587,0.1231692835509777,0.06944046984240412
1790964446882562800,7.945562744140625,0.20069792891144753,-0.021397592815756795,0.08532324475944042
1790964446892574700,7.95557470703125,0.12949907109439374,-0.1536427477478981,-0.037636633824557064
1790964446902588000,7.965587890625,0.18697364720255136,-0.16747721183300018,-0.09642389996647834
1790964446912599800,7.975599853515625,0.2080231572329998,-0.11838380284011363,-0.05919730824753642
1790964446922613000,7.985613037109375,0.12610212213248015,-0.022432781082391738,-0.041353462390601635
1790964446932625000,7.995625,0.11374386807978153,-0.012748422414064407,-0.16508301017284394
1790964446942637000,8.005636962890625,0.1488543444275856,-0.05936521216034889,-0.2503187227793038
1790964446952649700,8.015649658203126,0.1084010457471013,-0.06104337450563907,-0.22308497115597128
1790964446962661600,8.02566162109375,0.11862784072905778,-0.12425532522201538,-0.2560119659848511
1790964446972674800,8.0356748046875,0.16783172435909507,-0.13325053258240221,-0.18402225005105136
1790964446982686700,8.045686767578125,0.19510054729580878,-0.12185936999619007,-0.07845701225176453
1790964446992700000,8.055699951171874,0.19146774375140665,-0.07358370712697505,-0.1823218758739531
1790964447002711800,8.0657119140625,0.08529577223062515,-0.060199324896931646,-0.26922639847546814
1790964447012724000,8.075723876953125,0.08117080125510692,-0.028833880296349524,-0.24512641483321784
1790964447022737000,8.08573681640625,0.1808455197110772,-0.02049859814941883,-0.16998247265219688
1790964447032749000,8.0957490234375,0.21221242561638354,-0.06839958248734473,-0.19484189635962246
1790964447042761700,8.10576171875,0.17827566922307014,-0.12814298031032084,-0.1951155987344682
1790964447052774000,8.11577392578125,0.012715104666352272,-0.09065642248094082,-0.159978380510211
1790964447062785800,8.125785888671874,-0.12684680301994083,-0.027132921597361564,-0.09146423173248767
1790964447072799000,8.135799072265625,-0.03843699042201042,0.049585576424002645,-0.046723464991152285
1790964447082811000,8.145810791015625,0.1658133702740073,0.0025748189240694043,-0.09635200377404689
1790964447092823800,8.15582373046875,0.1531236923098564,-0.00874152486026287,-0.08061769741699099
1790964447102836000,8.1658359375,-0.08328004849404096,-0.011111176601052283,-0.015774346106499432
1790964447112848000,8.175847900390625,-0.18656068248748778,-0.050937575554847715,0.031711189298331735
1790964447122860800,8.18586083984375,-0.07442395734339952,-0.034573300731182095,0.07162921205833554
1790964447132872700,8.195872802734375,0.18866057737618683,-0.06114917296767235,0.020676000542938708
1790964447142886000,8.205885986328125,0.29801760867387056,0.004322539374232292,0.04715060436204076
1790964447152897800,8.215897705078126,0.1446168529883027,0.05018938753604889,0.13321370770335197
1790964447162911000,8.225910888671875,-0.08129822702705859,0.07516893049180508,0.12661343265548347
1790964447172923000,8.2359228515625,-0.20197364793568848,0.037813305565714835,0.14924495118036865
1790964447182934800,8.245934814453125,-0.12132891638129949,-0.022114801174402236,0.14092559725493192
1790964447192948000,8.255947998046874,0.05065466696023941,-0.035309798312187196,0.0699506113216281
1790964447202960000,8.2659599609375,0.07976239576190709,-0.03158347126543522,0.0017176175728440283
1790964447212972800,8.275972900390625,-0.013467384338378905,0.029634090763330456,0.02598579738885164
1790964447222984700,8.285984619140624,-0.05357289249449968,0.050526656666398044,0.012559329582750797
1790964447232996900,8.295996826171875,-0.05770400094985961,0.05670505304038524,0.024910277111828326
1790964447243009800,8.306009765625,-0.15781798760592936,0.10517243908941745,0.07109744326919316
1790964447253022000,8.31602197265625,-0.13684475768208504,0.087149875664711,0.0732559364773333
1790964447263035000,8.326034912109375,-0.0002478372812271118,0.02549041508734226,0.02412774843201041
1790964447273046800,8.336046875,0.10523995136767625,-0.0335883813470602,-0.16117460455745458
1790964447283059000,8.346058837890626,-0.02290799737870693,0.00026771102547645565,-0.1325495447061956
1790964447293072000,8.35607177734375,-0.19540946711450813,-0.04603109881281853,-0.17771116720810531
1790964447303083800,8.366083740234375,-0.27560207098722456,-0.06594985124766826,-0.20717472371011972
1790964447313096700,8.3760966796875,-0.12769406749904155,0.017972879064083097,0.10862637893557547
1790964447323108900,8.38610888671875,0.036895898459851736,0.031635493713617326,0.027558161272108552
1790964447333121800,8.396121826171875,-0.06212620130628347,0.007725625815987586,-0.16269509212300182
1790964447343134000,8.406134033203125,-0.15624445467889309,0.08670330094099045,0.02371054593324661
1790964447353145900,8.416145751953126,-0.04881780692189932,0.05160276146531105,-0.0057027416862547396
1790964447363159000,8.426158935546875,0.06261223125755787,-0.007890460988879203,0.016050386568903924
1790964447373171000,8.4361708984375,-0.06367927596718073,-0.05077917012274265,0.029990941376984118
1790964447383183600,8.44618359375,0.02720452552884817,-0.09183423408865928,-0.1065242920897901
1790964447393195500,8.456195556640624,0.0779457017287612,0.009750409641861916,-0.05810995140224695
1790964447403207700,8.466207763671875,0.07190759060829878,-0.013576689931750296,-0.09812938871011137
1790964447413220600,8.476220703125,0.2128893019646406,0.02122048268318176,-0.056645577938109634
1790964447423232800,8.486232666015624,0.3481725094184279,-0.026731939581036566,-0.00857800486162305
1790964447433245700,8.49624560546875,0.5531336487323045,-0.10175298603475093,-0.15267244141101835
1790964447443257900,8.5062578125,0.4972966106981039,0.22631050907373426,0.008038783418387175
1790964447453269800,8.516269775390626,-0.15322189198732375,0.10542378350198268,0.15225187791138886
1790964447463283000,8.526282958984375,-0.6940022551029921,-0.00038519992530345915,0.16100012477338313
1790964447473294800,8.536294921875,-0.4690308856785297,-0.05812953288555145,0.06928264893218875
1790964447483307800,8.546307861328126,0.282667771589756,-0.06252163036465644,-0.21082798552066087
1790964447493319700,8.556319580078124,0.40120091977268457,-0.0003945522755384445,-0.16314312815144658
1790964447503331600,8.56633154296875,-0.29706045407950876,0.05997077683806419,0.0808702108733356
1790964447513344800,8.5763447265625,-0.8270487895458937,-0.15123393304049967,0.16508534826040266
1790964447523356700,8.586356689453124,-0.3873512581184506,-0.19561141942739485,-0.24629282826408744
1790964447533369900,8.596369873046875,0.318930925104022,-0.01869476359784603,-0.3508428976714611
1790964447543381800,8.6063818359375,0.2145736017897725,0.029934535014629362,-0.08170929204598068
1790964447553394700,8.616394775390624,-0.1862780661538243,0.05141045376360416,-0.06270911576077341
1790964447563406600,8.626406494140625,-0.2909901942551136,0.06853752965331077,-0.2648882231406867
1790964447573418500,8.63641845703125,-0.017877017474174497,-0.08134615782201289,-0.33673063955828547
1790964447583431700,8.646431640625,0.30797026288956403,-0.15503449436724184,-0.3038525984376669
1790964447593443600,8.656443603515624,0.14551497087180615,-0.06567571048140526,-0.15369564697891472
1790964447603456800,8.666456787109375,-0.2008037273734808,-0.10036182393729687,-0.202854814684391
1790964447613468700,8.67646875,-0.255218623650074,0.0005249006569385528,-0.20281141393408178
1790964447623480800,8.686480712890624,-0.009371347196400166,0.06752338417470455,-0.08160115549638867
1790964447633493800,8.69649365234375,0.2339952183574438,0.09789631060659885,0.022969518307596443
1790964447643506000,8.706505859375,0.1630602721735835,0.018425299006700514,-0.10058525742962955
1790964447653518600,8.7165185546875,-0.24709026225209235,-0.04050210625827312,-0.2333668573260307
1790964447663530800,8.72653076171875,-0.38548341841995715,-0.02779752298593521,-0.04328238462656736
1790964447673542700,8.736542724609375,-0.07773001315146684,-0.03534253153800964,-0.008153349708765745
1790964447683555800,8.746555908203124,0.2106304171219468,-0.035815409746766086,-0.12376023518145084
1790964447693567700,8.756567626953125,0.16103548834770917,0.016934183666110037,-0.0569639962375164
1790964447703580700,8.76658056640625,-0.0783420075699687,0.1029658689558506,0.04890738490149379
1790964447713592800,8.7765927734375,-0.15862667364031074,0.0781435623884201,0.021782208219170568
1790964447723605800,8.786605712890625,-0.0797927909001708,0.010937573599815368,0.024628829821944236
1790964447733617700,8.79661767578125,-0.07510960152000189,0.031011808857321736,0.031297493930906056
1790964447743629600,8.806629638671875,-0.1624620140194893,-0.018728081345558166,-0.01602539825811982
1790964447753642800,8.816642822265624,-0.13385785082578658,-0.055015200257301326,-0.07368073776066303
1790964447763654700,8.826654541015625,0.050452714647352695,0.014655132818222045,-0.030110914494842288
1790964447773667800,8.836667724609375,0.16825900986045597,0.03393792543709278,-0.05348097642734646
1790964447783679700,8.8466796875,0.12549743423759938,-0.0048012628018856045,-0.12514818240851164
1790964447793691600,8.856691650390625,-0.13287526952922343,-0.014777882415056228,-0.09880363470986485
1790964447803704800,8.866704833984375,-0.20568185480386017,-0.05005670106709003,-0.12982216556891799
1790964447813716700,8.876716796875,-0.08055471518337726,-0.03652911097407341,-0.17413462389558554
1790964447823729700,8.886729736328125,0.03399871571362018,-0.028626375025510787,-0.10808248131722212
1790964447833741600,8.896741455078125,0.09235387404859065,0.013751461976766586,-0.14235153840482234
1790964447843754800,8.906754638671876,0.04095306489616632,0.005000000244379043,-0.16573182947039602
1790964447853766700,8.9167666015625,-0.002610182498395443,-0.019423077872395514,-0.2074595320008695
1790964447863778800,8.92677880859375,0.014079086495935917,-0.05286766683459282,-0.1929882313169539
1790964447873791700,8.936791748046875,0.06588000088185071,-0.054987143206596374,-0.17830401853471994
1790964447883804000,8.946803955078124,0.06785773069560527,-0.06151391462683677,-0.2092499225489795
1790964447893816800,8.95681689453125,0.06395721612572669,-0.05108078341782093,-0.20444149935394523
1790964447903828700,8.966828857421875,0.029372809478640554,-0.03402677276432514,-0.1339781162045896
1790964447913841000,8.9768408203125,-0.05344166733026504,-0.002881692916154861,-0.10863748485147952
1790964447923853600,8.986853515625,-0.12769056036770343,-0.014533552265167235,-0.06738368344306946
1790964447933865700,8.99686572265625,-0.10509674350470304,-0.009095745125412941,0.030469080282747744
1790964447943878700,9.006878662109376,-0.10168430471271275,-0.004988309806585311,0.03584419744983315
1790964447953890800,9.016890869140624,-0.10921236212998628,-0.0058352820247411724,0.022973025438934563
1790964447963902700,9.02690283203125,-0.07635843253731728,0.01871697542965412,0.11861074346378445
1790964447973916000,9.036916015625,0.009588497078418731,0.04361000914573669,0.17992752808332443
1790964447983927800,9.046927734375,0.20973229923844336,-0.057038815039396285,0.028109657675027846
1790964447993940700,9.056940673828125,0.4888394557371735,-0.21187924813926218,-0.35862492984980343
1790964448003952600,9.06695263671875,0.09557429739981889,0.03237082225084305,-0.364527578022331
1790964448013965600,9.076965576171874,0.2824646502330899,-0.06902969708442687,-0.016514350818842647
1790964448023977700,9.086977783203125,0.0947857773706317,0.00044832828938961026,-0.17783508584871888
1790964448033989600,9.09698974609375,-0.5920128299638628,0.10992167944312095,0.0020998948886990546
1790964448044002800,9.1070029296875,-0.9145078772902488,-0.05396247633397579,0.20921835836693645
1790964448054014700,9.1170146484375,-0.3815609842792153,-0.19997370629012584,-0.1771994182936847
1790964448064028000,9.12702783203125,0.7728910829007625,-0.31912790898084636,-0.7441613936312497
1790964448074039800,9.137039794921876,1.1896268409356474,-0.36576164986193177,-0.7452890824869275
1790964448084051700,9.1470517578125,1.1442165043696761,-0.38263504325151443,-0.7113634320095181
1790964448094064600,9.157064697265625,1.0394690126940607,-0.37253392047584055,-0.7668368974283337
1790964448104076500,9.16707666015625,0.6393859910354018,-0.30886078198850153,-0.7464892520569264
1790964448114089700,9.17708984375,-0.30734336316287514,-0.198031924572587,-0.5233835303738713
1790964448124101600,9.1871015625,-1.2492372600287198,-0.11123860726058482,0.02578150698840618
1790964448134113800,9.19711376953125,-1.1797998589262366,-0.003704699736833572,0.7496963775351643
1790964448144126700,9.207126708984376,-0.22285130853056906,-0.23434476244747637,0.6781660958066582
1790964448154139000,9.217138916015625,0.538453381472826,-0.5589467189252376,-0.23806933592855928
1790964448164151600,9.227151611328125,0.7307806646630167,-0.6814537391752005,-0.6811128167830407
1790964448174163700,9.237163818359376,0.37791765934079885,-0.2997954320013523,-0.3582243862248957
1790964448184176600,9.2471767578125,-0.4360764183208346,0.45001405051946636,0.7217762510828674
1790964448194188800,9.257188720703125,-1.6403572230309247,0.9402174880862235,1.7326681347206234
1790964448204200700,9.26720068359375,-1.9746900076672433,0.7568558939009904,1.361863960646838
1790964448214213600,9.277213623046874,-0.7816320232391357,0.2707593071311712,0.5503831809803843
1790964448224225800,9.287225830078125,0.25727964783310886,-0.17102467518150805,-0.23192294212803244
1790964448234238700,9.29723876953125,1.1501645991191267,-0.5584177266150713,-0.7386174957685172
1790964448244251000,9.3072509765625,0.9568541501104831,-0.9509685992032288,-1.2361169355623423
1790964448254262800,9.3172626953125,0.38421032974421976,-0.9279618176251649,-1.0098942509025335
1790964448264275700,9.327275634765625,-0.32178134609907866,-0.31588381249308584,0.04156352494470775
1790964448274287600,9.33728759765625,-0.32141514313519,0.647654929947853,0.4382474056843668
1790964448284300800,9.34730078125,0.7012099945247173,0.9510609536617993,0.1970814189147204
1790964448294312700,9.357312744140625,1.0153519317865372,0.9151970285981893,-0.052328080065175885
1790964448304326000,9.367325927734376,0.2099228533744812,0.5682388634055853,0.14028225785009563
1790964448314337800,9.377337890625,-0.9927227513492107,0.4764315173238516,1.014294531688094
1790964448324349700,9.387349609375,-1.7898633093655107,0.48600481683313845,1.866708356375992
1790964448334362600,9.397362548828125,-0.777640323254466,0.03909633111357689,1.344569419235736
1790964448344374800,9.407374755859376,0.6603124592080712,-0.21631693832576274,0.1904702571466565
1790964448354387700,9.4173876953125,1.389733818216622,-0.10942892749011517,-0.0603563420895487
1790964448364399600,9.427399658203125,0.8247720767855644,0.11164075832068919,-0.12156615920327603
1790964448374411800,9.437411865234376,0.00867576614767313,0.16203297495245933,0.23598902252316473
1790964448384424700,9.4474248046875,0.03060264353454113,0.2353331889629364,0.5652576556377112
1790964448394436900,9.457436767578125,0.6460632768422365,0.2623644037514925,0.18260697642564772
1790964448404449800,9.46744970703125,0.9441495668381452,0.08137070774137974,-0.0212241359449923
1790964448414461700,9.477461669921874,0.6174687582597136,0.02751695247888565,0.05707563991844654
1790964448424474600,9.487474609375,0.07929302468448877,0.06961947967112064,0.16406258108392358
1790964448434486500,9.497486572265625,0.06695669020265341,0.05415419951379299,0.23773557392954825
1790964448444498700,9.507498779296874,-0.0022092004820704458,0.09712415719032287,0.15671075701639056
1790964448454511600,9.51751171875,-0.33715573310256003,0.21164543938338756,0.3482368798915297
1790964448464523800,9.527523681640625,-0.7729594719618559,0.310683905762434,0.4582788247134536
1790964448474536700,9.53753662109375,-1.1431076663449407,0.41780397178828715,0.4223425650659948
1790964448484548900,9.547548828125,-1.014031496837735,0.5105278481930494,0.474876250705868
1790964448494560800,9.557560791015625,-0.14432166943401098,0.3329384076684713,0.45341311837323006
1790964448504573700,9.56757373046875,0.6953831880673765,0.23610125072598456,0.4993339617446065
1790964448514585900,9.5775859375,0.9402993211507796,0.19169921441972254,0.6470440315078944
1790964448524598800,9.587598876953125,0.9153390674173831,0.06180617557168006,0.5762979589596391
1790964448534610700,9.597610595703125,0.7592655853912234,0.005722469300031662,0.28803287881948053
1790964448544623600,9.60762353515625,0.7348600429311394,0.062031801021099085,0.4006584834590554
1790964448554635800,9.6176357421875,0.944511678148806,0.3156114252924919,0.6933841232046485
1790964448564647700,9.627647705078125,0.8418027065634727,0.4356511786460876,0.7419253051422536
1790964448574660900,9.637660888671874,0.5376312514349818,0.24892449194192884,0.772697167763859
1790964448584672800,9.6476728515625,-0.023374445846676827,-0.6986702469140291,-0.011971008300781249
1790964448594685700,9.657685791015625,-1.3322671331539748,-2.069513194438815,-1.4957579056993127
1790964448604697600,9.667697509765626,-2.230155884076655,-0.5040297183454037,-0.3670716364819556
1790964448614709500,9.67770947265625,-1.6933105223223566,0.5149111778438091,1.2356795670583844
1790964448624722700,9.68772265625,-0.06726502549946307,-0.08552198220193385,0.4649188472498208
1790964448634734600,9.697734619140626,0.9505275774374604,0.11321662933528423,-0.11407017742469906
1790964448644747800,9.707747802734374,0.8132976198300719,0.057520461076498025,0.5864654249697924
1790964448654759700,9.717759765625,0.025451544381678102,0.15783201613128184,0.3622477965220809
1790964448664772900,9.72777294921875,-0.5208668713778257,-0.06950023720562458,-0.35042218804135916
1790964448674784800,9.73778466796875,-0.28251754946410657,-0.05564531485438347,0.10524470060802996
1790964448684797000,9.747796875,0.010390168850123881,-0.013200257834792136,0.2491382077578455
1790964448694809600,9.7578095703125,0.255004104116559,-0.06861351749897003,-0.16267032300792633
1790964448704821800,9.76782177734375,-0.07073767004609108,0.16129998450279234,0.24228512699268756
1790964448714834700,9.777834716796875,-0.21819559167921543,0.090221538195014,0.10630670381635426
1790964448724846800,9.787846923828125,0.08506897773742675,0.04220364947915077,-0.14530848851427436
1790964448734858800,9.797858642578126,0.11704115605950355,0.019857377636432645,0.18173223941773176
1790964448744871700,9.80787158203125,-0.09967705654352903,-0.023109657430648804,0.004682750988751649
1790964448754883800,9.8178837890625,-0.1310644207149744,-0.02912029602229595,0.0929414646781981
1790964448764896500,9.827896484375,-0.0432610495775938,-0.028773090019822117,0.02322480824291706
1790964448774908700,9.83790869140625,0.03863338977694511,0.007286065354943275,-0.08041706027835607
1790964448784921600,9.847921630859375,-0.02886719804406166,0.06887596782743931,0.01425342014953494
1790964448794933800,9.857933837890625,-0.0893067614376545,0.0761304690003395,-0.043875528214126824
1790964448804945700,9.867945556640626,-0.041938861063122744,0.030993104156851768,-0.045287294708192344
1790964448814958800,9.877958740234375,-0.0174848032861948,0.00599485650062561,-0.08470832773149013
1790964448824970800,9.887970703125,-0.08187778048068285,-0.02374970889985561,-0.13088468023389577
1790964448834984000,9.89798388671875,-0.10039543394595384,-0.005627776753902435,-0.14471446814388036
1790964448844995800,9.907995849609375,-0.04001812213361263,-0.005874444991350173,-0.1700163749217987
1790964448855007700,9.9180078125,-0.01585398721396923,0.028357494956254958,-0.18812851632609962
1790964448865020700,9.928020751953126,-0.06458791524469852,0.034520693761110305,-0.17002821149006486
1790964448875032600,9.938032470703124,-0.10700491521358489,0.03505260868072509,-0.18626286858469246
1790964448885045800,9.948045654296875,-0.06466331856846809,0.0028711715221405028,-0.19325272747203706
1790964448895057700,9.9580576171875,-0.04064326829463243,-0.005179448464512825,-0.2127690365858376
1790964448905070800,9.96807080078125,-0.08647826001346111,-0.03762216690778732,-0.24574907677620647
1790964448915082800,9.978082763671875,-0.12158406018614769,-0.019487375280261038,-0.25449147841930386
1790964448925095000,9.988094970703125,-0.11482494131475686,0.019309680625796317,-0.24726035812199115
1790964448935107600,9.998107666015626,-0.07043079605400562,0.03542611816823482,-0.22350728822126983
1790964448945119700,10.00811962890625,-0.05119710327386856,0.047885786768794056,-0.2460186874978244
1790964448955132700,10.018132568359375,-0.0917857187718153,0.018911036697030065,-0.2713870836406946
1790964448965144600,10.02814453125,-0.12139701318144798,-0.007674187889695167,-0.286083571382612
1790964448975156700,10.03815673828125,-0.1260667585581541,-0.01708089866042137,-0.2696890475511551
1790964448985169700,10.048169677734375,-0.09961597400605678,-0.007222936990857124,-0.25701997398361565
1790964448995181800,10.058181884765625,-0.0962386065274477,0.019362872117757796,-0.2507866325519979
1790964449005194800,10.06819482421875,-0.09520224921703338,0.023311317482590674,-0.27585969901010393
1790964449015207000,10.07820703125,-0.06960398984104395,0.008227730119228362,-0.2952569117888808
1790964449025219600,10.088219482421875,-0.042483050942420955,0.012419921112060545,-0.2963891306892037
1790964449035231700,10.098231689453126,-0.06818243260532617,0.0011649521261453627,-0.2697872472286224
1790964449045243600,10.10824365234375,-0.07698562452495097,-0.020718962901830673,-0.24070742934718728
1790964449055256800,10.1182568359375,-0.06702098761051893,-0.010775661036372184,-0.244146025493741
1790964449065268700,10.128268798828126,-0.04978051447421312,-0.004587327790260315,-0.27011618692204353
1790964449075281700,10.13828173828125,-0.032061025649309155,0.0009895955592393875,-0.23880714868381617
1790964449085293800,10.1482939453125,-0.006665303108096122,-0.0039221418797969814,-0.2389281447149813
1790964449095306800,10.158306640625,-0.010626023432612418,0.004376315388083457,-0.18618863430470228
1790964449105319000,10.16831884765625,0.006829261498153209,-0.02233984210193157,-0.16423443051949144
1790964449115330800,10.178330810546875,0.04952683197408914,-0.03367722867429256,-0.1490292626030743
1790964449125343700,10.18834375,0.07133446689546108,-0.0679348875850439,-0.14570333305075764
1790964449135355600,10.198355712890624,0.0799777920782566,-0.04257774348855018,-0.12508739213198422
1790964449145368800,10.208368896484375,0.10285101040452718,-0.028993454772233963,-0.04921411276310682
1790964449155380700,10.218380615234375,0.1759369971424341,-0.00988660324215889,-0.02428483868986368
1790964449165392600,10.228392578125,0.23128917426913975,-0.0205085350215435,-0.02765007733926177
1790964449175405800,10.23840576171875,0.21607085461020467,-0.007829670712351798,-0.011683861922472715
1790964449185417700,10.248417724609375,0.1690495757162571,-0.038866029489040374,0.023139321916550395
1790964449195430700,10.2584306640625,0.1280097093194723,-0.029797172370553016,0.07023381217718123
1790964449205442600,10.268442626953124,0.14067483736425637,-0.03518471062779426,0.08470014442503451
1790964449215455700,10.278455810546875,0.1128890048161149,-0.017904490002989767,0.1143013558320701
1790964449225467600,10.288467529296875,0.039974282991886136,0.03369476433098316,0.1261174658320844
1790964449235479800,10.298479736328124,-0.030307459980249404,0.029019173735380172,0.13048150626048444
1790964449245492700,10.30849267578125,-0.00609071809053421,0.03002396686375141,0.15966997214816508
1790964449255504600,10.318504638671875,-0.004768821837007999,0.019379238730669022,0.18992643259353933
1790964449265517800,10.328517822265624,-0.002760696884989738,0.014862638089060782,0.2026792389217764
1790964449275529700,10.33852978515625,-0.0647869449481368,0.027532734569907187,0.25436047245077786
1790964449285542700,10.348542724609375,0.0076715575411915775,0.07739478984773158,0.20061331936791538
1790964449295554600,10.358554443359376,0.14410539633482694,0.007866495591402053,0.21047880675680933
1790964449305566700,10.368566650390624,0.008400456337630749,0.08845920469760894,0.2324864212296903
1790964449315579600,10.37857958984375,0.17323504470735787,0.012144611302018165,-0.03036225890740752
1790964449325591800,10.388591796875,0.15005086073577403,0.0028729250878095627,0.12472491549514234
1790964449335604700,10.398604736328124,-0.1296183135598898,0.01731003124117851,0.35457258571907874
1790964449345617000,10.408616943359375,0.15820552561879156,-0.04522796573638916,0.29690643256157634
1790964449355628800,10.41862890625,0.08844985234737396,0.009756254860758781,0.48627011670581993
1790964449365641700,10.428641845703124,0.033849662631750106,-0.00078209028840065,0.5591298934724181
1790964449375653600,10.438653564453125,0.17110095528811214,-0.017077976050972936,0.167921448469162
1790964449385667300,10.448667236328125,0.3849848212480545,0.1740513295263052,0.4434025964904576
1790964449395679200,10.45867919921875,0.12555880903601646,-0.08427344344556331,0.7935859342746436
1790964449405692400,10.4686923828125,-0.4348489223524928,0.09005787206590175,0.42206813203878696
1790964449415704300,10.478704345703125,0.5505240507557988,-0.1754138500511646,0.5489936263181269
1790964449425716200,10.48871630859375,0.33871816011369227,0.2708469854146242,0.6761282333035021
1790964449435729200,10.498729248046875,0.11675035641938447,-0.17405249857008456,0.08394450375214219
1790964449445741000,10.508740966796875,0.019366963770985603,0.2079875013977289,0.19700024343729017
1790964449455754200,10.518754150390626,0.31361762112677094,0.09337269570231436,0.6389866164542735
1790964449465766100,10.52876611328125,-0.17364684037864206,-0.03863046716749668,0.18903481751605866
1790964449475779300,10.538779296875,0.05805237599611282,-0.10162672930657864,0.19076880170181393
1790964449485791200,10.548791259765625,0.5707441242247819,-0.06687865653038025,0.3792467159874737
1790964449495803100,10.55880322265625,0.30160657307654615,-0.19391981307864187,-0.1989589762896299
1790964449505816300,10.56881640625,-0.18333499843925236,-0.10282675274610519,0.1936336896136403
1790964449515828200,10.578828125,0.26984423811286684,-0.2287748533606529,-0.3383868823327124
1790964449525841200,10.588841064453124,0.5978989653930068,-0.07632920644283295,-0.3735888363562524
1790964449535853000,10.59885302734375,0.14666063377559185,0.18168927705883978,0.03359817208871245
1790964449545865200,10.608865234375,-0.389980145317316,0.28627894782423974,0.4268856883883476
1790964449555878100,10.618878173828126,-0.020245207910239694,0.0809054283171892,0.5563662009127438
1790964449565890300,10.628890380859374,0.5817451184496283,-0.16713468200564383,0.06913929493874311
1790964449575903200,10.6389033203125,0.34430092868208884,-0.2500111181348562,-0.19523337989524006
1790964449585915400,10.648915283203126,-0.5629299433425069,-0.036811435046792025,-0.20907602728679775
1790964449595928300,10.65892822265625,-0.6981228421643376,0.06319149245023727,-0.15689283558502792
1790964449605940200,10.668940185546875,0.30393063210994004,0.08229366780519486,0.02045607418194413
1790964449615952100,10.6789521484375,1.0209560354039073,0.1480605637013912,-0.10216697366312145
1790964449625965000,10.688965087890624,0.2017760795369744,0.013372107270359992,-0.5919629994727671
1790964449635977200,10.698977294921875,-0.901885127082467,-0.10997077928185463,-0.6334026788420974
1790964449645990100,10.708990234375,-0.45307197678536176,-0.2762175725370645,-0.24025690910071132
1790964449656002300,10.719002197265626,0.5069830151930451,-0.18850597133636474,-0.0331570041924715
1790964449666015200,10.72901513671875,0.21259587197601795,-0.104983053997159,0.0925654709726572
1790964449676027400,10.73902734375,-0.32617753523141146,0.1236614509820938,-0.6041247080400586
1790964449686039300,10.749039306640626,-0.22365531838983296,0.1697287901520729,-0.7685618215247988
1790964449696052200,10.75905224609375,0.10780980185568333,0.11692717429101467,-0.72234484475106
1790964449706064100,10.769064208984375,0.1390744164302945,-0.03791208976507187,-0.7365306064918636
1790964449716077300,10.779077392578126,-0.26370149757415057,-0.10910334879755973,-0.7340550101585686
1790964449726089200,10.789089111328124,-0.433134519650042,-0.17681085736751556,-0.9213552589669823
1790964449736102400,10.799102294921875,-0.0956046925380826,-0.2059825913161039,-1.0150482726648449
1790964449746114300,10.8091142578125,0.2320759407326579,-0.15094810183644294,-0.9938324661567807
1790964449756126200,10.819126220703126,-0.06296995865404606,-0.014964929419755935,-0.8909558829195797
1790964449766139400,10.829139404296875,-0.44273032325208184,0.09171031544804573,-0.7942503895327448
1790964449776151300,10.8391513671875,-0.21034517043977974,0.03655366089344025,-0.909421660067141
1790964449786164200,10.849164306640626,0.11749269921928643,-0.08425006256997584,-1.0612428914763032
1790964449796176100,10.859176025390624,-0.1426166190817952,-0.15266367358267308,-1.141912830537185
1790964449806188000,10.86918798828125,-0.5254489384710789,-0.14408113867640496,-1.1309061372239142
1790964449816201200,10.879201171875,-0.345783276194334,-0.13135142096281052,-1.0151435497328638
1790964449826213000,10.889213134765624,0.024009236618876457,-0.0932972923785448,-1.037082555948943
1790964449836226300,10.899226318359375,-0.03531476674824953,-0.052181438136100766,-1.0675653724960983
1790964449846238200,10.90923828125,-0.34143063394278284,-0.03990647845268249,-1.1182144864983856
1790964449856251100,10.919251220703124,-0.36627164521068334,-0.009150105661153794,-1.1273224335182457
1790964449866263000,10.929262939453125,-0.053476446382701395,-0.08846738800406455,-0.9803558025334029
1790964449876275200,10.939275146484375,0.22797435063272714,-0.10680617777109146,-0.7640058387208729
1790964449886288100,10.9492880859375,-0.1458104466870427,-0.21929741544127462,-0.7953332893986255
1790964449896300300,10.95930029296875,-0.5886702415376901,-0.17240882301628588,-1.353642952529341
1790964449906313200,10.969313232421875,0.0336146848320961,-0.17265899838507173,-0.983006390107423
1790964449916325400,10.979325439453126,0.14169804293215274,-0.18897592693567275,-1.1517327982839196
1790964449926338300,10.98933837890625,0.17874299447387457,-0.1759551173210144,-1.0455025207046418
1790964449936350200,10.99935009765625,0.14730156202763317,-0.07849076839089393,0.050799847584590316
1790964449946362400,11.0093623046875,-0.11863047107756138,-0.20890520076453684,-0.7677057892173528
1790964449956375000,11.019375,-0.04042085771560669,-0.19196400283575057,-0.16714147707261146
1790964449966387200,11.02938720703125,0.348185368900001,-0.12472995699644088,0.4169823532070964
1790964449976400100,11.039400146484375,0.1832467356339097,-0.15111410605311393,-0.008596636496856809
1790964449986412300,11.049412353515624,-0.6762392193973064,-0.03252455150783062,0.10342859109677374
1790964449996425200,11.05942529296875,-0.3475292430788278,0.07824702276289462,-0.5444285834249109
1790964450006437400,11.069437255859375,0.22295506116598843,0.09590776713788508,-0.7273270901430398
1790964450016449300,11.07944921875,-0.38996757809668775,0.10128770661056041,-0.6130417355976998
1790964450026462200,11.089462158203125,-0.7326593180164694,-0.054738136881589884,-0.5222757152624428
1790964450036474000,11.09947412109375,-0.37701194267272947,-0.10889175187349319,-0.14209106083773076
1790964450046487300,11.1094873046875,-0.1408390880152583,-0.13830956953763962,-0.3474276824004948
1790964450056499200,11.119499267578124,-0.23661329190135,0.08723404681682587,-0.09892042948994785
1790964450066512100,11.12951220703125,-0.5607943926185369,0.289271699899435,0.17738518665675074
1790964450076524300,11.139524169921875,-0.6702075380176306,0.19040975913107394,0.1614001934742555
1790964450086536200,11.1495361328125,-0.5341308420985936,0.053289107117056846,0.5805463736517354
1790964450096549400,11.15954931640625,-0.303747969019413,-0.017685878816246985,0.5730899932311847
1790964450106561300,11.169561279296875,-0.5605754891708493,-0.01979366475045681,0.47899537646248935
1790964450116574200,11.17957421875,-0.6624974020317197,0.15543138473033905,0.21838764365259555
1790964450126586000,11.189586181640625,-0.4670364969909191,0.3043272302120924,-0.051495245970226824
1790964450136598000,11.199597900390625,-0.38024025706946846,0.3323047859400511,-0.24954912664629517
1790964450146611200,11.209611083984376,-0.491171698077023,0.17614450241327284,-0.16631083493474869
1790964450156623000,11.219623046875,-0.4827870238304138,-0.01594809523820877,-0.03577168020289391
1790964450166636300,11.22963623046875,-0.27918080625683067,-0.1773626460313797,0.1838246451197192
1790964450176648200,11.239648193359375,-0.3538622454926371,-0.1529623642683029,0.49811651224624365
1790964450186661000,11.2496611328125,-0.6782631264403463,0.09556465278863906,0.8689929113060235
1790964450196673300,11.25967333984375,-0.6266907601132988,0.3798825296729803,1.2078772217668592
1790964450206685200,11.269685302734375,-0.18150719849020241,0.5980956570088863,1.2152449740558862
1790964450216698000,11.279697998046874,0.0038072833284735676,0.4790969371408224,0.8638790023583919
1790964450226710300,11.289710205078125,-0.4672241285175085,0.302613996553421,0.6505564966082572
1790964450236723200,11.29972314453125,-0.7618851202398538,0.16101181521117686,0.6822380944859237
1790964450246735400,11.3097353515625,-0.5043009365022182,0.06671557492315769,0.986950743819028
1790964450256748300,11.319748291015625,-0.16718553541004658,0.09539631048440933,1.2728187727548181
1790964450266760200,11.32976025390625,-0.189760647572577,0.16989128723740576,1.2676093675434588
1790964450276772400,11.3397724609375,-0.4562304408162832,0.2547884155392647,1.1737750456787646
1790964450286785000,11.349784912109374,-0.6744219408422708,0.2896019547671079,1.0839381959524006
1790964450296797200,11.359797119140625,-0.6482306840091944,0.39969723721146583,0.9910053529720753
1790964450306810000,11.36981005859375,-0.4021206649661064,0.45136663417220113,0.9180980107367038
1790964450316822300,11.379822265625,-0.37625761717408895,0.42987259524464605,0.6851029093325137
1790964450326835200,11.389835205078125,-0.5706447555035352,0.2999000614196062,0.6556772736880928
1790964450336847400,11.399847412109375,-0.6765206666871905,0.16617898871600628,0.7020744293343275
1790964450346859300,11.409859375,-0.5810241106987,0.14421207157969473,0.9131475487224757
1790964450356872400,11.41987255859375,-0.49764264765679833,0.25582535737156864,1.1784217024408281
1790964450366884400,11.42988427734375,-0.5659501679465174,0.2970008328467607,1.0492161344002933
1790964450376897300,11.439897216796876,-0.5709966376811265,0.35240824729204173,0.5991177665982395
1790964450386909200,11.4499091796875,-0.48930970359742637,0.37317455646693704,0.32385559508986766
1790964450396922400,11.45992236328125,-0.3212146521270275,0.32284605272114275,0.1762491500978358
1790964450406934300,11.469934326171876,-0.4744266072422266,0.28285832572579384,0.2432534605681896
1790964450416946400,11.479946533203124,-0.6688418026223778,0.144689041441679,0.3353991352261975
1790964450426959400,11.48995947265625,-0.6711103320762515,0.07032499759197235,0.11989005181775428
1790964450436971500,11.499971435546875,-0.5952797228053212,0.09832710323929786,0.07188534224387258
1790964450446984200,11.509984130859374,-0.569267037409544,0.22200550535619257,-0.04451684005865827
1790964450456996000,11.51999609375,-0.44860798311382527,0.30690847887694833,-0.17149609208554029
1790964450467009300,11.53000927734375,-0.35198476118296385,0.4309446083903312,-0.14801534545333123
1790964450477021200,11.540021240234376,-0.3647361062064767,0.4395119457274675,-0.2815519923675805
1790964450487033300,11.550033447265625,-0.34919191559404134,0.25818799484968186,-0.4277342680417001
1790964450497046300,11.56004638671875,-0.47252311170846223,-0.03085749507844448,-0.35058395447432994
1790964450507058400,11.570058349609376,-0.5901020279064774,-0.24167817407548425,-0.5260600926393643
1790964450517071400,11.5800712890625,-0.4663762795165181,-0.1926338649213314,-0.5031822712032125
1790964450527083500,11.59008349609375,-0.5127700741618871,0.0325642989963293,-0.3943766632432118
1790964450537096200,11.60009619140625,-0.36386516859084367,0.20779870082736013,-0.5309862239299342
1790964450547108400,11.6101083984375,0.0629398557767272,0.393588983464241,-0.2647545137584209
1790964450557120300,11.620120361328125,0.5011453950807452,0.9050824618190526,-0.5430553953755647
1790964450567133400,11.630133544921875,0.26732436424642797,0.4219739509493112,-0.3272217835873365
1790964450577145300,11.640145263671876,-1.0425462281823157,0.1514648191869259,0.148057367097307
1790964450587158300,11.650158203125,-0.8362231528654694,-0.4923012866288423,-0.09527472993135452
1790964450597170400,11.66017041015625,0.22416969765275715,-0.43859073922932146,0.44493806242942807
1790964450607183000,11.67018310546875,-0.1522980551406741,-0.1444891349554062,0.7164371550772338
1790964450617195300,11.6801953125,-0.2369189968496561,0.193130708527565,0.005168707874789834
1790964450627207200,11.690207275390625,0.43864422298222777,0.5863210480630398,0.08121876858267933
1790964450637220400,11.700220458984376,0.41913142099976536,0.5818856959640979,0.09897148382375016
1790964450647232300,11.710232177734374,0.22300240743905306,0.3230921364367008,0.21907853025989607
1790964450657245400,11.720245361328125,-0.4124029895275831,0.04503507351279259,0.9103468120880425
1790964450667257300,11.73025732421875,-0.6006508944496513,-0.16828151395320892,0.9993430462718009
1790964450677270500,11.7402705078125,-0.033731589210033414,-0.3784574653059244,1.0017636244822292
1790964450687282400,11.750282470703125,0.2149807212859392,-0.08351181142330169,0.9670197164244949
1790964450697294300,11.76029443359375,0.19995383254587648,-0.036217560806870455,0.6759152481399476
1790964450707307300,11.770307373046874,-0.4443780904591083,0.33723756616711614,0.8326420795083046
1790964450717319200,11.780319091796875,-0.85582334087044,0.371402870619297,0.9397908601719885
1790964450727332400,11.790332275390625,-0.3395797453790903,0.4851297875642776,0.8728025327220559
1790964450737344300,11.80034423828125,0.446252944420278,0.3003782003253698,0.841762228422612
1790964450747357400,11.810357421875,0.16371464442908762,0.09770984812378883,0.8997437311396003
1790964450757369300,11.820369384765625,-0.8548615101009607,-0.17064882760643957,0.7690350650597363
1790964450767381200,11.83038134765625,-1.2916852396577596,-0.27034254302382466,0.8169520506843924
1790964450777394200,11.840394287109374,-1.367043847502768,-0.3289104673266411,1.074826303409785
1790964450787406000,11.850406005859375,-1.359130297899246,-0.2490963413774967,0.7894849286966026
1790964450797419300,11.860419189453125,-0.794182877254486,-0.04347673815488815,0.41838933392819017
1790964450807431200,11.87043115234375,-0.11701192996501922,0.11475625999271868,0.2780340473745018
1790964450817443300,11.880443359375,-0.6016428280964493,0.3584329144090414,-0.001548033159598708
1790964450827456300,11.890456298828125,-0.8411541795268654,0.8373661854207515,-0.09857742473855614
1790964450837468400,11.900468505859376,0.02225625547170639,1.353945588737726,0.08490498281475156
1790964450847481300,11.9104814453125,0.02581073308289051,1.0147381838023661,0.0861494664505124
1790964450857493500,11.920493408203125,-1.359725341182947,0.1335170745640993,-0.08442826868109404
1790964450867506200,11.930506103515626,-1.5769474116548894,-0.6344792220324278,-0.26750841557644306
1790964450877518300,11.940518310546874,-1.0678563182666898,-1.0563947207927704,-0.07478175780512392
1790964450887530200,11.9505302734375,-0.7670484943524003,-0.796424518701434,-0.2125997444335371
1790964450897543200,11.960543212890625,-0.5161304905056953,0.08930968404710292,-0.23379388709906487
1790964450907555300,11.970555419921874,-0.7518766441836953,0.8860276327371597,-0.3077541359208524
1790964450917568300,11.980568359375,-0.3820172036141157,1.1022580618232487,-0.5649655042907222
1790964450927580400,11.990580322265625,0.009212357242405414,0.3995107747286558,-0.21604013067837805
1790964450937593300,12.00059326171875,0.3839364812389016,0.011570026284456253,-0.6555871111866086
1790964450947605200,12.010605224609375,1.2080009942770003,-0.13146364916563033,-0.8168377766549587
1790964450957618200,12.0206181640625,1.5964146209299563,0.41304070290923117,-0.6013961233263835
1790964450967630300,12.03063037109375,1.3241715049818157,1.1570523128062487,-0.2994114376524463
1790964450977642200,12.040642333984374,0.7776561053454876,0.8258949433356523,0.3375331881128251
1790964450987655400,12.050655517578125,0.5609130505621432,-0.21257249110043047,1.0119640429139136
1790964450997667300,12.060667236328126,0.7699401241406798,-1.1324357579439879,1.3128718200713396
1790964451007680500,12.070680419921874,-0.1644333140924573,-1.4122171604424714,1.3962171888865529
1790964451017692400,12.0806923828125,-1.8314762994751332,-0.33468262098729606,1.8886654827706515
1790964451027705000,12.090705078125,-1.067936105504632,1.3450070800006388,0.8522414637956768
1790964451037717200,12.10071728515625,1.1540224435910582,1.2070236736774445,0.15064016839843242
1790964451047729200,12.110729248046875,1.2961366661086677,1.047410034826398,0.6511567275237292
1790964451057742300,12.120742431640625,0.13995324509143828,0.13185410978794096,-0.06141429017726332
1790964451067754200,12.130754150390626,-1.4574232066079973,-0.08042904297709465,-0.4822423224944621
1790964451077767400,12.140767333984375,-1.723806198351085,-0.31812311585247516,-0.6717883774682879
1790964451087779300,12.150779296875,-0.19833938308656215,-0.4306079237818718,-1.024134665440023
1790964451097792500,12.16079248046875,0.7708914335161448,-0.4431640384942293,-0.8166513141721486
1790964451107804400,12.170804443359375,0.20302607959806918,-0.25677403639852997,-0.2134354280726984
1790964451117816300,12.18081640625,-0.4651821012958884,-0.03879880947172642,-0.06801533241011203
1790964451127829200,12.190829345703126,0.4203887275844812,-0.12551964606940746,-0.2631470420291647
1790964451137841200,12.200841064453124,1.4621914439231156,-0.1743243012487888,-0.30796189692001785
1790964451147854300,12.210854248046875,1.366513978409767,-0.3679933544367552,-0.37073976706806566
1790964451157866200,12.2208662109375,1.1042653099924324,-0.34393384893536566,-0.23884495994355529
1790964451167879400,12.23087939453125,1.1404358167871833,-0.3017851445138454,-0.04662800526004284
1790964451177891300,12.240891357421875,1.4740771120280027,-0.4421826262414455,-0.20980211307164282
1790964451187903500,12.250903564453125,1.899973204857111,-0.6904477774918079,0.011008410346321761
1790964451197916200,12.260916259765626,2.02381118144989,-0.9492039276182651,0.7268158526852726
1790964451207928300,12.27092822265625,2.102281491574645,-0.9114742086827754,1.2641358462139964
1790964451217941200,12.280941162109375,2.2996590438917277,-0.8043330998688936,1.1950859100591391
1790964451227953200,12.290953125,2.474033321762085,-0.8010603618085383,0.8093897987365722
1790964451237966300,12.30096630859375,2.5125699731662867,-0.9339011445462703,0.6538344953656197
1790964451247978200,12.310978271484375,2.5562878266006708,-0.8508926064699888,0.8952608866371213
1790964451257990400,12.320990478515625,2.6593203310519455,-0.7349620420008898,1.2057964699700474
1790964451268003300,12.33100341796875,2.681895443214476,-0.7312135031223297,1.3761379851929842
1790964451278015500,12.341015380859375,2.302202298633754,-0.5578939950019121,1.223470804478973
1790964451288028200,12.351028076171875,1.2634922876134513,-0.402265041872859,0.8444237027168273
1790964451298040300,12.361040283203126,0.8439242287620902,-0.4106125989794731,0.4659454868838191
1790964451308053200,12.37105322265625,1.45810826626271,-0.38889527269005775,0.48139224500376726
1790964451318065400,12.3810654296875,1.646401179370284,-0.31595921581685543,0.747763071385026
1790964451328077300,12.391077392578126,0.9129702924594283,-0.12904022141098975,0.7601475558575242
1790964451338090500,12.401090576171875,0.3679942312195897,0.016867548170685767,0.6892865516927092
1790964451348102400,12.411102294921875,0.316838336738944,0.0908095672160387,0.5398840718630701
1790964451358115000,12.421114990234376,0.3440378938317299,0.02372106732726097,0.060279477461054914
1790964451368127200,12.431127197265624,0.31093554243594407,-0.18302958575189113,-0.44892581689134237
1790964451378140200,12.44114013671875,-0.03099339641779661,-0.3090530896902084,-0.6384886038042604
1790964451388151300,12.4511513671875,-0.5724371918782591,-0.15835574774444103,-0.49777723382189865
1790964451398163200,12.4611630859375,-0.4130079696834087,0.020239070430397986,-0.07931488945642486
1790964451408176400,12.47117626953125,0.499711562885344,0.016491700595617293,0.21481513719437642
1790964451418188300,12.481188232421875,0.7891793698787689,-0.11670505597293376,0.017785822926228864
1790964451428201200,12.491201171875,-0.18690993431657552,-0.07842004124224186,0.3076453052515164
