time,seconds_elapsed,z,y,x
1790964439003455700,0.066455810546875,0.009588195942342281,-0.6159029006958008,0.030805015936493874
1790964439013467600,0.076467529296875,0.028248434886336327,-0.7817462086677551,0.05295426398515701
1790964439023479800,0.086479736328125,0.06299789249897003,-0.8591094017028809,0.08688266575336456
1790964439033492500,0.096492431640625,0.06874259561300278,-0.9773306250572205,0.13430877029895782
1790964439043504600,0.106504638671875,0.1283356100320816,-1.2028026580810547,0.19798095524311066
1790964439053516500,0.1165166015625,0.08923189342021942,-1.2865781784057617,0.2554975152015686
1790964439063529500,0.126529541015625,0.030105456709861755,-1.1581089496612549,0.34154558181762695
1790964439073541600,0.136541748046875,0.06958814710378647,-0.9260450601577759,0.49403658509254456
1790964439083553500,0.146553466796875,0.0541873574256897,-0.8707210421562195,0.6702627539634705
1790964439093565700,0.156565673828125,-0.045305944979190826,-0.9131430983543396,0.7989698648452759
1790964439103578600,0.16657861328125,-0.0944117084145546,-0.9208183288574219,0.8802788853645325
1790964439113590800,0.1765908203125,-0.10022645443677902,-0.8985849022865295,0.8864867091178894
1790964439123602700,0.186602783203125,-0.11138562858104706,-0.8494807481765747,0.8085343837738037
1790964439133615600,0.19661572265625,-0.14399896562099457,-0.7960987687110901,0.6079937815666199
1790964439143627500,0.20662744140625,-0.1445600986480713,-0.690229058265686,0.34777018427848816
1790964439153639700,0.2166396484375,-0.11079999804496765,-0.5855359435081482,0.12862558662891388
1790964439163652600,0.226652587890625,-0.059365302324295044,-0.4380767047405243,-0.01976574957370758
1790964439173664500,0.23666455078125,-0.02077157236635685,-0.22005195915699005,-0.12414701282978058
1790964439183676400,0.246676513671875,-0.010004946030676365,0.02804199606180191,-0.18593928217887878
1790964439193688600,0.2566884765625,-0.008982292376458645,0.21820874512195587,-0.20190440118312836
1790964439203701500,0.266701416015625,-0.018445834517478943,0.27682945132255554,-0.18697844445705414
1790964439213713700,0.276713623046875,-0.03701179474592209,0.21681804955005646,-0.13980160653591156
1790964439223725600,0.2867255859375,-0.05074704810976982,0.12564872205257416,-0.07563673704862595
1790964439233738800,0.29673876953125,-0.06071233004331589,0.03777824714779854,-0.005425426177680492
1790964439243750700,0.306750732421875,-0.07607158273458481,0.009129556827247143,0.06978197395801544
1790964439253762600,0.316762451171875,-0.10283342003822327,0.09144067764282227,0.15664257109165192
1790964439263775500,0.326775390625,-0.13231541216373444,0.1958419233560562,0.20024198293685913
1790964439273787400,0.336787353515625,-0.13949210941791534,0.2592206299304962,0.18523533642292023
1790964439283799600,0.346799560546875,-0.11885739117860794,0.2911356985569,0.15202997624874115
1790964439293811500,0.3568115234375,-0.10389655083417892,0.19740599393844604,0.16108712553977966
1790964439303824600,0.36682470703125,-0.11295236647129059,0.08856446295976639,0.18320760130882263
1790964439313836500,0.37683642578125,-0.1174994483590126,0.027057157829403877,0.21961674094200134
1790964439323848400,0.386848388671875,-0.10848571360111237,-0.021832088008522987,0.2623671293258667
1790964439333861600,0.396861572265625,-0.06783389300107956,-0.07974065840244293,0.2874911427497864
1790964439343873500,0.40687353515625,-0.04311602562665939,-0.08815385401248932,0.2548612952232361
1790964439353885700,0.4168857421875,-0.029410600662231445,-0.07135196775197983,0.20860376954078674
1790964439363898600,0.426898681640625,-0.01655871793627739,-0.056889139115810394,0.164146289229393
1790964439373910800,0.436910888671875,-0.025322116911411285,-0.07030881196260452,0.11379949748516083
1790964439383925000,0.446925048828125,-0.03142928704619408,-0.07695801556110382,0.05751857906579971
1790964439393937000,0.45693701171875,-0.032566726207733154,-0.0787884071469307,0.026697279885411263
1790964439403949800,0.46694970703125,-0.03421122580766678,-0.06991874426603317,0.014983100816607475
1790964439413962000,0.4769619140625,-0.03584400936961174,-0.02873562090098858,0.01524568721652031
1790964439423974000,0.486973876953125,-0.024071775376796722,0.02685866504907608,0.01314152404665947
1790964439433986800,0.49698681640625,-0.01061109360307455,0.09396286308765411,0.006977105513215065
1790964439443998700,0.506998779296875,-0.013689175248146057,0.1564432978630066,-0.0014326241798698902
1790964439454011000,0.517010986328125,-0.020733769983053207,0.17998643219470978,0.000872607808560133
1790964439464022800,0.527022705078125,-0.03403066471219063,0.19169075787067413,0.016844384372234344
1790964439474035700,0.53703564453125,-0.04527905583381653,0.19749672710895538,0.052768561989068985
1790964439484048000,0.5470478515625,-0.0452878475189209,0.1882518231868744,0.11404816061258316
1790964439494059800,0.557059814453125,-0.0567314475774765,0.1800391674041748,0.16521254181861877
1790964439504073000,0.567072998046875,-0.0653795376420021,0.1940319538116455,0.17800398170948029
1790964439514084900,0.5770849609375,-0.06428178399801254,0.2593350410461426,0.14283454418182373
1790964439524097000,0.587096923828125,-0.0632852241396904,0.3913319706916809,0.06649662554264069
1790964439534110000,0.59710986328125,-0.0836152657866478,0.7000000476837158,-0.057814937084913254
1790964439544121900,0.607121826171875,-0.058207906782627106,0.9946188926696777,-0.2097858339548111
1790964439554134000,0.617134033203125,-0.11221441626548767,1.1411629915237427,-0.3968486487865448
1790964439564146700,0.627146728515625,-0.2978668212890625,1.3277188539505005,-0.629919707775116
1790964439583545900,0.6465458984375,-0.4476664364337921,1.8565762042999268,-0.9952302575111389
1790964439593557800,0.656557861328125,-0.3935810923576355,1.8756319284439087,-1.0441983938217163
1790964439603569700,0.666569580078125,-0.29580846428871155,1.7028125524520874,-0.9875468015670776
1790964439613582800,0.676582763671875,-0.14268603920936584,1.2508636713027954,-0.8452874422073364
1790964439623594800,0.6865947265625,-0.023796936497092247,0.390762060880661,-0.6582269668579102
1790964439633607000,0.69660693359375,-0.008464852347970009,-0.3036305606365204,-0.47657516598701477
1790964439643618800,0.706618896484375,-0.02405047044157982,-0.625337541103363,-0.3020784556865692
1790964439653632000,0.716632080078125,-0.019391003996133804,-0.7295515537261963,-0.18365968763828278
1790964439663644000,0.726643798828125,0.005465078167617321,-0.855393648147583,-0.10991755872964859
1790964439673655800,0.73665576171875,0.012155737727880478,-0.9228309988975525,-0.0415629968047142
1790964439683668700,0.746668701171875,0.023885363712906837,-0.7706286907196045,0.02482347935438156
1790964439693680600,0.7566806640625,0.05130394175648689,-0.5255991816520691,0.08758006989955902
1790964439703692800,0.76669287109375,0.06718622893095016,-0.31034839153289795,0.14125767350196838
1790964439713705700,0.776705810546875,0.07409633696079254,-0.1600845903158188,0.16599471867084503
1790964439723718000,0.7867177734375,0.05994696542620659,-0.10759501904249191,0.15757860243320465
1790964439733729800,0.796729736328125,0.05003547668457031,-0.15289297699928284,0.12791524827480316
1790964439743743000,0.806742919921875,0.05187785252928734,-0.22661727666854858,0.08151604980230331
1790964439753755000,0.8167548828125,0.053302641957998276,-0.3101766109466553,0.014215577393770218
1790964439763766800,0.826766845703125,0.03270948305726051,-0.4123338758945465,-0.048327162861824036
1790964439773779000,0.836779052734375,0.006044316105544567,-0.4840961992740631,-0.08725538849830627
1790964439783791900,0.8467919921875,-0.01491502858698368,-0.48625683784484863,-0.08879762887954712
1790964439793804000,0.856803955078125,-0.029738448560237885,-0.4051140546798706,-0.07688423991203308
1790964439803816000,0.86681591796875,-0.03393052890896797,-0.26808881759643555,-0.07114779204130173
1790964439813828900,0.876828857421875,-0.024706140160560608,-0.1477040797472,-0.060408588498830795
1790964439823840800,0.8868408203125,-0.015973635017871857,-0.10260771960020065,-0.0440802164375782
1790964439833852700,0.896852783203125,-0.008572177961468697,-0.10101860761642456,0.001140521839261055
1790964439843865900,0.906865966796875,-0.009220657870173454,-0.08869882673025131,0.07639212906360626
1790964439853877800,0.916877685546875,-0.01923227868974209,-0.059055179357528687,0.13280640542507172
1790964439863890000,0.926889892578125,-0.035804860293865204,0.0049533662386238575,0.15313591063022614
1790964439873901800,0.93690185546875,-0.06999026983976364,0.03642766922712326,0.10491219162940979
1790964439883915000,0.9469150390625,-0.07205714285373688,0.009858641773462296,0.020088380202651024
1790964439893927000,0.956927001953125,-0.041296567767858505,-0.051647331565618515,-0.048259515315294266
1790964439903938800,0.966938720703125,-0.03122449479997158,-0.11680369824171066,-0.08194024860858917
1790964439913952000,0.976951904296875,-0.030539793893694878,-0.15716762840747833,-0.04105353727936745
1790964439923964000,0.9869638671875,-0.04139084368944168,-0.08675764501094818,0.05332436412572861
1790964439933975800,0.996975830078125,-0.0626673698425293,0.023646892979741096,0.12195668369531631
1790964439943988700,1.00698876953125,-0.08475909382104874,0.0891590565443039,0.11387931555509567
1790964439954001000,1.0170009765625,-0.09026437997817993,0.05923524498939514,0.047596171498298645
1790964439964012800,1.0270126953125,-0.07930254191160202,-0.01087539829313755,-0.01995517686009407
1790964439974026000,1.03702587890625,-0.06254326552152634,-0.09437881410121918,-0.05520797148346901
1790964439984038000,1.047037841796875,-0.04704020544886589,-0.14357803761959076,-0.05576537176966667
1790964439994049800,1.0570498046875,-0.02453489974141121,-0.10262423008680344,-0.006922730710357428
1790964440004062000,1.06706201171875,-0.00856179092079401,-0.022819941863417625,0.03638666123151779
1790964440014075000,1.077074951171875,-0.008722646161913872,0.04946037754416466,0.03704685717821121
1790964440024087000,1.087087158203125,-0.0163456778973341,0.07603126764297485,0.007943300530314445
1790964440034099000,1.097098876953125,-0.02357429638504982,-0.03679248318076134,0.019838042557239532
1790964440044112000,1.10711181640625,-0.023123955354094505,-0.25679513812065125,0.08726874738931656
1790964440054123800,1.117123779296875,0.058769047260284424,-0.5206092596054077,0.14318740367889404
1790964440064135700,1.1271357421875,0.10798399150371552,-0.6938350796699524,0.19234509766101837
1790964440074148900,1.13714892578125,0.07146859169006348,-0.6504282355308533,0.24170120060443878
1790964440084160800,1.147160888671875,0.06558061391115189,-0.509608268737793,0.2962952256202698
1790964440094173000,1.1571728515625,0.05706196278333664,-0.3958473205566406,0.33124813437461853
1790964440104184800,1.167184814453125,0.04554405435919762,-0.33931586146354675,0.36451447010040283
1790964440114198000,1.177197998046875,0.04177994281053543,-0.2868422567844391,0.3881513774394989
1790964440124210000,1.1872099609375,0.022986281663179398,-0.24466338753700256,0.400022953748703
1790964440134221800,1.197221923828125,-0.022887201979756355,-0.308627724647522,0.44957131147384644
1790964440144235000,1.207235107421875,-0.03507781773805618,-0.24100126326084137,0.4349694848060608
1790964440154247000,1.217246826171875,-0.05053826794028282,-0.11976540088653564,0.3654537796974182
1790964440164259000,1.227259033203125,-0.06492280215024948,-0.03333356976509094,0.2574050724506378
1790964440174271700,1.237271728515625,-0.08374708890914917,-0.08165236562490463,0.17366169393062592
1790964440184283600,1.24728369140625,-0.13264484703540802,-0.29680007696151733,0.16355979442596436
1790964440194295800,1.2572958984375,-0.18844713270664215,-0.4496367573738098,0.2269800454378128
1790964440204308700,1.267308837890625,-0.2062852531671524,-0.4179920256137848,0.3151048421859741
1790964440214321000,1.27732080078125,-0.1921910047531128,-0.2330900877714157,0.3964543044567108
1790964440224332800,1.287332763671875,-0.16150899231433868,-0.05929512903094292,0.41730180382728577
1790964440234346000,1.297345947265625,-0.11515401303768158,0.06432134658098221,0.37157559394836426
1790964440244358000,1.30735791015625,-0.06407219171524048,0.08546391874551773,0.288884699344635
1790964440254369800,1.317369873046875,-0.002655698684975505,0.07072598487138748,0.18669439852237701
1790964440264382000,1.3273818359375,0.035438958555459976,0.07916741073131561,0.07945716381072998
1790964440274394600,1.33739453125,0.021457627415657043,0.06022673845291138,-0.0384332500398159
1790964440284406800,1.34740673828125,0.00919297058135271,0.10700622946023941,-0.14822447299957275
1790964440294418700,1.357418701171875,0.0019028339302167296,0.19942457973957062,-0.22496052086353302
1790964440304431900,1.367431884765625,-0.011199652217328548,0.260869562625885,-0.2508789300918579
1790964440314443800,1.37744384765625,-0.028409797698259354,0.32887712121009827,-0.19396905601024628
1790964440324455700,1.38745556640625,-0.06821873039007187,0.5323689579963684,-0.07522296160459518
1790964440334468900,1.39746875,-0.06474197655916214,0.8236902952194214,0.031539175659418106
1790964440344480800,1.407480712890625,-0.04933078959584236,0.8351589441299438,0.07316864281892776
1790964440354493000,1.417492919921875,-0.049302030354738235,0.5074020624160767,0.06223823130130768
1790964440364505900,1.427505859375,-0.02543531358242035,0.2021937370300293,0.03689931705594063
1790964440374515000,1.437514892578125,0.002153703710064292,0.06168055906891823,0.0044710710644721985
1790964440384526800,1.44752685546875,0.012776713818311691,-0.017984705045819283,-0.008045172318816185
1790964440394540000,1.4575400390625,-0.006142914295196533,-0.17952007055282593,0.02333245798945427
1790964440404552000,1.467552001953125,-0.03073161467909813,-0.3719363808631897,0.12407371401786804
1790964440414564000,1.477564208984375,-0.08822526037693024,-0.6257734298706055,0.2866860628128052
1790964440424576000,1.487575927734375,-0.15938439965248108,-0.8813873529434204,0.47966137528419495
1790964440434589200,1.497589111328125,-0.23945260047912598,-0.9615352153778076,0.6089969873428345
1790964440444601000,1.50760107421875,-0.31688135862350464,-0.8369892835617065,0.630479633808136
1790964440454613000,1.517613037109375,-0.4665086567401886,-0.34081894159317017,0.4948478043079376
1790964440464626200,1.527626220703125,-0.6847621202468872,0.6944745779037476,0.24152524769306183
1790964440474638000,1.53763818359375,-0.566800057888031,1.8832201957702637,-0.08592372387647629
1790964440484650200,1.547650146484375,-0.44823405146598816,2.2945516109466553,-0.508437991142273
1790964440494663000,1.557662841796875,-0.47348615527153015,2.525667905807495,-1.0455901622772217
1790964440504675000,1.567675048828125,-0.4833020269870758,2.809781074523926,-1.608271598815918
1790964440514687000,1.57768701171875,-0.44188880920410156,3.008699417114258,-2.141634941101074
1790964440524700200,1.5877001953125,-0.4458840787410736,2.899211883544922,-2.6386237144470215
1790964440534712000,1.597712158203125,-0.5742377638816833,2.5608558654785156,-3.1454274654388428
1790964440544724000,1.607723876953125,-0.710769772529602,1.4905061721801758,-3.611999034881592
1790964440554737200,1.617737060546875,-0.33263182640075684,0.6518785953521729,-4.044774532318115
1790964440564749000,1.6277490234375,-0.056337110698223114,0.19743679463863373,-4.5859270095825195
1790964440574761200,1.63776123046875,0.0815424695611,-0.5441323518753052,-5.054515361785889
1790964440584773000,1.647773193359375,0.2015026956796646,-0.5689759254455566,-5.435502052307129
1790964440594786000,1.6577861328125,0.25385111570358276,0.12703506648540497,-5.490908145904541
1790964440604798000,1.6677978515625,0.2471921443939209,0.5959463119506836,-5.229666233062744
1790964440614810000,1.67781005859375,0.1101088598370552,0.6056696176528931,-4.6826300621032715
1790964440624823000,1.687822998046875,-0.25978532433509827,0.7793662548065186,-3.9699456691741943
1790964440634835000,1.6978349609375,-0.705020010471344,0.8730911016464233,-3.130098342895508
1790964440644847000,1.70784716796875,-1.2473597526550293,0.8087997436523438,-2.1659770011901855
1790964440654860000,1.717860107421875,-1.8407442569732666,0.7093876600265503,-1.1168911457061768
1790964440664872200,1.7278720703125,-2.419621467590332,0.5504471063613892,-0.08731070160865784
1790964440674884000,1.737884033203125,-2.8660080432891846,0.40651464462280273,0.8201643228530884
1790964440684897000,1.74789697265625,-3.1317191123962402,0.46518275141716003,1.5881999731063843
1790964440694909200,1.7579091796875,-3.259751796722412,0.6869434118270874,2.2174606323242188
1790964440704921000,1.767921142578125,-3.2732529640197754,0.9879099130630493,2.676547050476074
1790964440714934000,1.77793408203125,-3.162508964538574,1.1551532745361328,2.9414710998535156
1790964440724946000,1.78794580078125,-2.9513514041900635,1.050847053527832,3.0333282947540283
1790964440734958000,1.7979580078125,-2.6907076835632324,0.7207088470458984,2.9849352836608887
1790964440744971000,1.807970947265625,-2.4594357013702393,0.3183874487876892,2.8288896083831787
1790964440754983000,1.81798291015625,-2.3081448078155518,-0.053007934242486954,2.5783512592315674
1790964440764995000,1.8279951171875,-2.2405972480773926,-0.26899269223213196,2.2500874996185303
1790964440775008000,1.838008056640625,-2.1870994567871094,-0.2589573860168457,1.8868870735168457
1790964440785020200,1.848020263671875,-2.0618677139282227,-0.1406637579202652,1.5594027042388916
1790964440795032000,1.858031982421875,-1.878904104232788,-0.08359727263450623,1.3171306848526
1790964440805044200,1.868044189453125,-1.6777914762496948,-0.11558076739311218,1.1592577695846558
1790964440815057200,1.87805712890625,-1.5011675357818604,-0.0375264473259449,1.040594458580017
1790964440825069000,1.888069091796875,-1.3763291835784912,0.2149428129196167,0.9155830144882202
1790964440835081200,1.898081298828125,-1.2992042303085327,0.20122914016246796,0.787318229675293
1790964440845094000,1.908093994140625,-1.1957359313964844,-0.020266501232981682,0.6930327415466309
1790964440855106000,1.91810595703125,-1.0299632549285889,-0.19690757989883423,0.6483201384544373
1790964440865118000,1.928117919921875,-0.8443903923034668,-0.26930826902389526,0.6354765295982361
1790964440875131100,1.938131103515625,-0.6924057006835938,-0.20831097662448883,0.6214296817779541
1790964440885143000,1.94814306640625,-0.6328209042549133,-0.08450274169445038,0.5672982335090637
1790964440895155000,1.958155029296875,-0.6757414937019348,-0.06919249892234802,0.4588008522987366
1790964440905168100,1.968168212890625,-0.7258265018463135,-0.3352915644645691,0.335560142993927
1790964440915180000,1.978179931640625,-0.6879632472991943,-0.7193111181259155,0.2646034061908722
1790964440925192200,1.988192138671875,-0.5326804518699646,-0.8984646797180176,0.3024120330810547
1790964440935204900,1.998204833984375,-0.29123538732528687,-0.7868441343307495,0.4474736154079437
1790964440945217000,2.008217041015625,0.003805323736742139,-0.5750043392181396,0.6345244646072388
1790964440955229000,2.01822900390625,0.2913004755973816,-0.4362613260746002,0.7610868811607361
1790964440965242000,2.0282421875,0.5026436448097229,-0.5141494274139404,0.7633263468742371
1790964440975254000,2.03825390625,0.595356285572052,-0.7519955635070801,0.6396728754043579
1790964440985266000,2.048265869140625,0.6696315407752991,-0.9370940923690796,0.5024186372756958
1790964440995279000,2.058279052734375,0.8425742983818054,-0.8854029178619385,0.4203581213951111
1790964441005291000,2.068291015625,1.1277575492858887,-0.711431622505188,0.44525814056396484
1790964441015303200,2.07830322265625,1.4612386226654053,-0.3780081272125244,0.5522111654281616
1790964441025316000,2.088316162109375,1.8024723529815674,-0.1805746853351593,0.705194890499115
1790964441035328300,2.098328369140625,2.096499443054199,-0.24493396282196045,0.9431089162826538
1790964441045340200,2.108340087890625,2.3359158039093018,-0.4030887186527252,1.2843605279922485
1790964441055353000,2.11835302734375,2.476649284362793,-0.4709646999835968,1.6189278364181519
1790964441065365000,2.128364990234375,2.5135421752929688,-0.6211994886398315,1.8798545598983765
1790964441075377000,2.138376953125,2.496157646179199,-0.7816981077194214,2.037966728210449
1790964441085390000,2.14839013671875,2.43489933013916,-0.8521674871444702,2.127573251724243
1790964441095402000,2.158402099609375,2.328526020050049,-0.7490679025650024,2.2009284496307373
1790964441105414100,2.1684140625,2.2095260620117188,-0.3828473687171936,2.289999008178711
1790964441115427000,2.178427001953125,2.097085475921631,0.10592366009950638,2.332164764404297
1790964441125439200,2.188439208984375,2.011032819747925,0.4361763894557953,2.347853183746338
1790964441135451100,2.198451171875,1.9640573263168335,0.5473226308822632,2.3749470710754395
1790964441145464000,2.208464111328125,1.9533261060714722,0.4557519555091858,2.3693697452545166
1790964441155476000,2.21847607421875,1.9391404390335083,0.3181658685207367,2.4200644493103027
1790964441165488000,2.228488037109375,1.8363767862319946,0.33166438341140747,2.6284148693084717
1790964441175501000,2.2385009765625,1.7602527141571045,0.22382232546806335,2.944594621658325
1790964441185513000,2.248512939453125,1.749972939491272,0.2632887661457062,3.2874600887298584
1790964441195525000,2.258525146484375,1.7960741519927979,0.4842105209827423,3.5633370876312256
1790964441205538000,2.2685380859375,1.8192670345306396,0.8917181491851807,3.7033727169036865
1790964441215550000,2.278550048828125,1.7364691495895386,1.4766603708267212,3.7947659492492676
1790964441225562000,2.28856201171875,1.5607348680496216,1.7435851097106934,3.9690520763397217
1790964441235575000,2.298574951171875,1.3374786376953125,1.380129098892212,4.248098850250244
1790964441245587200,2.308587158203125,1.1357641220092773,0.5953599214553833,4.5584306716918945
1790964441255599000,2.31859912109375,1.0099451541900635,0.08720163255929947,4.842671871185303
1790964441265612000,2.328612060546875,0.9507766962051392,-0.04960548132658005,5.074097633361816
1790964441275624000,2.3386240234375,0.9473241567611694,-0.05510837212204933,5.274351119995117
1790964441285635800,2.3486357421875,0.9959515929222107,0.23410585522651672,5.407160758972168
1790964441295649000,2.35864892578125,1.0985187292099,0.47679147124290466,5.145336151123047
1790964441305661000,2.368660888671875,1.2722580432891846,0.8979264497756958,4.606566429138184
1790964441315673000,2.378673095703125,1.482125997543335,1.272165060043335,3.9326484203338623
1790964441325686000,2.38868603515625,1.6681662797927856,1.2665492296218872,3.1601924896240234
1790964441335698200,2.3986982421875,1.8155686855316162,1.0053048133850098,2.358099937438965
1790964441345710000,2.4087099609375,1.8715050220489502,0.8302099704742432,1.572655200958252
1790964441355723300,2.41872314453125,1.7779744863510132,0.8065472841262817,0.7999581098556519
1790964441365735200,2.428735107421875,1.533076524734497,0.800118088722229,0.05109138786792755
1790964441375747600,2.43874755859375,1.177191138267517,0.7676384449005127,-0.6127289533615112
1790964441385760800,2.4487607421875,0.773242712020874,0.6998452544212341,-1.1675690412521362
1790964441395772700,2.458772705078125,0.40713924169540405,0.562146782875061,-1.5918591022491455
1790964441405784600,2.46878466796875,0.11020372807979584,0.32928022742271423,-1.870203971862793
1790964441415797800,2.4787978515625,-0.09883550554513931,0.1310126781463623,-2.0086286067962646
1790964441425809700,2.4888095703125,-0.2380615770816803,0.2251618206501007,-2.060741901397705
1790964441435821800,2.49882177734375,-0.3312820792198181,0.5769289135932922,-2.0544190406799316
1790964441445834800,2.508834716796875,-0.35896962881088257,0.7815859317779541,-1.910027027130127
1790964441455847000,2.518846923828125,-0.28540700674057007,0.4965302050113678,-1.5449182987213135
1790964441465858800,2.52885888671875,-0.08180086314678192,-0.18483716249465942,-0.9163520932197571
1790964441475871700,2.538871826171875,0.14413081109523773,-0.45217379927635193,-0.23356154561042786
1790964441485883600,2.548883544921875,0.292072057723999,-0.1396813988685608,0.34005483984947205
1790964441495895600,2.5588955078125,0.3470623195171356,0.36312875151634216,0.7995020747184753
1790964441505908700,2.56890869140625,0.35137638449668884,0.7635515332221985,1.1729023456573486
1790964441515920600,2.578920654296875,0.28913217782974243,0.9497048854827881,1.448217511177063
1790964441525932800,2.588932861328125,0.14858147501945496,0.9792001843452454,1.6307401657104492
1790964441535945700,2.59894580078125,-0.05272287502884865,0.8008669018745422,1.7509208917617798
1790964441545957600,2.60895751953125,-0.2862333655357361,0.378273069858551,1.8180147409439087
1790964441555970600,2.618970458984375,-0.519816517829895,-0.0009546787478029728,1.8162821531295776
1790964441565982500,2.628982421875,-0.6953838467597961,-0.11644478887319565,1.7400342226028442
1790964441575994600,2.63899462890625,-0.7892069816589355,0.017323127016425133,1.632241129875183
1790964441586007600,2.649007568359375,-0.7474720478057861,0.22380280494689941,1.5400211811065674
1790964441596019700,2.659019775390625,-0.6039303541183472,0.440032035112381,1.4398049116134644
1790964441606031600,2.669031494140625,-0.3919305205345154,0.5697599649429321,1.3299593925476074
1790964441616044800,2.679044921875,-0.16175800561904907,0.564764678478241,1.1402674913406372
1790964441626056700,2.689056640625,0.03851089999079704,0.43905624747276306,0.825689971446991
1790964441636068600,2.699068603515625,0.16781961917877197,0.24002651870250702,0.4295112192630768
1790964441646081800,2.709081787109375,0.2042820304632187,0.03550159931182861,-0.009554542601108551
1790964441656093700,2.71909375,0.152627095580101,-0.08158347755670547,-0.4522528648376465
1790964441666105900,2.72910595703125,-0.006572422571480274,-0.13628160953521729,-0.8851355910301208
1790964441676118500,2.739118408203125,-0.23209156095981598,-0.18372981250286102,-1.3268402814865112
1790964441686130700,2.749130615234375,-0.3515085279941559,-0.2720407545566559,-1.6820685863494873
1790964441696143600,2.7591435546875,-0.3349654972553253,-0.4129185378551483,-1.895617961883545
1790964441706155800,2.76915576171875,-0.25974076986312866,-0.5335653424263,-2.053016185760498
1790964441716167700,2.779167724609375,-0.16063708066940308,-0.6273040771484375,-2.156759738922119
1790964441726180900,2.789180908203125,-0.054922111332416534,-0.7292416095733643,-2.1428163051605225
1790964441736192800,2.79919287109375,0.019992610439658165,-0.7680505514144897,-2.0033700466156006
1790964441746204700,2.80920458984375,0.0269948597997427,-0.7294970154762268,-1.7376691102981567
1790964441756217600,2.819217529296875,-0.011907532811164856,-0.678968071937561,-1.331344485282898
1790964441766229500,2.8292294921875,-0.05971287190914154,-0.42027390003204346,-0.8840937614440918
1790964441776242700,2.83924267578125,-0.06678036600351334,-0.0344974584877491,-0.47557684779167175
1790964441786254600,2.849254638671875,-0.025214016437530518,0.26977428793907166,-0.1183025985956192
1790964441796266800,2.859266845703125,0.053274400532245636,0.4239436089992523,0.24651078879833221
1790964441806279700,2.86927978515625,0.11054248362779617,0.4623032510280609,0.6827850341796875
1790964441816291600,2.87929150390625,0.12223029881715775,0.5885069966316223,1.1364766359329224
1790964441826303700,2.8893037109375,0.028702745214104652,0.9514495134353638,1.4787671566009521
1790964441836316700,2.899316650390625,-0.01909034326672554,1.2799676656723022,1.6395611763000488
1790964441846328800,2.909328857421875,0.02050952985882759,1.431190013885498,1.6144073009490967
1790964441856340700,2.9193408203125,0.0707750990986824,1.2327914237976074,1.440828561782837
1790964441866353700,2.929353759765625,0.06443091481924057,0.8190352916717529,1.2267436981201172
1790964441876365600,2.939365478515625,0.012786895036697388,0.3995772898197174,1.010305404663086
1790964441886378800,2.949378662109375,-0.089154914021492,0.20662008225917816,0.7053425312042236
1790964441896390700,2.959390625,-0.22823449969291687,-0.037172071635723114,0.16487611830234528
1790964441906402600,2.969402587890625,-0.35752061009407043,-0.31194478273391724,-0.6332713961601257
1790964441916415700,2.979415771484375,-0.4535994529724121,-0.6344772577285767,-1.4599753618240356
1790964441926427600,2.989427734375,-0.5689385533332825,-1.0123984813690186,-2.083239793777466
1790964441936439800,2.999439697265625,-0.6981418132781982,-1.2993041276931763,-2.4946916103363037
1790964441946452700,3.00945263671875,-0.853728175163269,-1.4326863288879395,-2.710728883743286
1790964441956464600,3.019464599609375,-1.0052194595336914,-1.4724329710006714,-2.6913371086120605
1790964441966476800,3.029476806640625,-1.0326929092407227,-1.448336124420166,-2.3510494232177734
1790964441976489700,3.03948974609375,-0.8562928438186646,-1.2608850002288818,-1.7164140939712524
1790964441986501600,3.049501708984375,-0.5139520168304443,-0.9381932020187378,-0.9170637130737305
1790964441996514800,3.059514892578125,-0.2055526226758957,-0.5690199732780457,-0.20003154873847961
1790964442006526700,3.069526611328125,-0.07731582969427109,-0.379772812128067,0.2551242709159851
1790964442016538600,3.07953857421875,0.023247791454195976,-0.38190576434135437,0.4941416382789612
1790964442026551800,3.0895517578125,0.2883465588092804,-0.39381086826324463,0.4987097382545471
1790964442036563700,3.099563720703125,0.8237199783325195,-0.5613695383071899,0.3046742379665375
1790964442046575900,3.109575927734375,1.421269416809082,-0.8776952624320984,0.030189407989382744
1790964442056588500,3.119588623046875,1.8371752500534058,-1.2327204942703247,-0.4153156280517578
1790964442066600700,3.1296005859375,1.9061031341552734,-1.4682798385620117,-1.1011461019515991
1790964442076613600,3.139613525390625,1.6586947441101074,-1.6733224391937256,-1.7209957838058472
1790964442086625500,3.14962548828125,1.2343910932540894,-1.7989157438278198,-2.0365476608276367
1790964442096637700,3.1596376953125,0.7438501715660095,-1.7882639169692993,-2.0475783348083496
1790964442106650600,3.169650634765625,0.2849675416946411,-1.6474671363830566,-1.8036928176879883
1790964442116662800,3.179662841796875,-0.020678119733929634,-1.3582651615142822,-1.3679062128067017
1790964442126674700,3.1896748046875,-0.11404215544462204,-0.8963065147399902,-0.8993792533874512
1790964442136687900,3.19968798828125,-0.00765766017138958,-0.46012306213378906,-0.4830712378025055
1790964442146699800,3.20969970703125,-0.025388985872268677,-0.2878897786140442,-0.2549595236778259
1790964442156711700,3.219711669921875,-0.2423870712518692,-0.3309091329574585,-0.2033410519361496
1790964442166724600,3.229724609375,-0.46671953797340393,-0.3727681636810303,-0.26490429043769836
1790964442176736500,3.239736572265625,-0.6495694518089294,-0.3598036468029022,-0.3359811305999756
1790964442186749700,3.249749755859375,-0.8587421178817749,-0.37411201000213623,-0.30592283606529236
1790964442196761600,3.25976171875,-1.0205137729644775,-0.35578760504722595,-0.20205529034137726
1790964442206773800,3.269773681640625,-1.096165657043457,-0.27233317494392395,-0.03144572675228119
1790964442216786700,3.27978662109375,-1.1672134399414062,-0.254661500453949,0.1282922774553299
1790964442226798800,3.289798828125,-1.268250823020935,-0.3544224500656128,0.2630058825016022
1790964442236810800,3.299810791015625,-1.4087570905685425,-0.3707723915576935,0.4383774399757385
1790964442246823700,3.30982373046875,-1.5418280363082886,-0.26430854201316833,0.6780638098716736
1790964442256835600,3.319835693359375,-1.6107653379440308,-0.10374443978071213,0.9464331865310669
1790964442266848800,3.329848876953125,-1.6316882371902466,0.017589444294571877,1.1824209690093994
1790964442276860700,3.339860595703125,-1.7262812852859497,0.21310701966285706,1.2785606384277344
1790964442286872600,3.34987255859375,-1.6672883033752441,0.29330384731292725,1.2306804656982422
1790964442296885800,3.3598857421875,-1.46341872215271,0.21272006630897522,1.1586592197418213
1790964442306897700,3.369897705078125,-1.1331117153167725,0.13061188161373138,1.1257667541503906
1790964442316909800,3.379909912109375,-0.769075870513916,0.11079075932502747,1.0855392217636108
1790964442326922800,3.3899228515625,-0.5103412866592407,0.0566585510969162,0.9842396974563599
1790964442336934700,3.3999345703125,-0.49322065711021423,0.001353749306872487,0.8012269735336304
1790964442346946800,3.40994677734375,-0.6814504265785217,0.10496243089437485,0.6762344837188721
1790964442356959500,3.41995947265625,-0.8334023952484131,0.3457460105419159,0.6977429389953613
1790964442366971600,3.4299716796875,-0.7814518809318542,0.5551591515541077,0.7504799365997314
1790964442376984000,3.439984130859375,-0.8027478456497192,0.5619757771492004,0.7327094674110413
1790964442386996000,3.449995849609375,-1.0165785551071167,0.48187604546546936,0.6253286600112915
1790964442397008100,3.460008056640625,-1.2852236032485962,0.44218748807907104,0.5888026356697083
1790964442407021000,3.47002099609375,-1.260068655014038,0.4076622724533081,0.7574028372764587
1790964442417033200,3.480033203125,-0.9456047415733337,0.41497212648391724,0.96673983335495
1790964442427045000,3.490045166015625,-0.4987886846065521,0.5601516366004944,1.0917922258377075
1790964442437058300,3.500058349609375,-0.08041217178106308,0.9279656410217285,1.0975984334945679
1790964442447070200,3.5100703125,0.2347806692123413,1.3087489604949951,0.9966468214988708
1790964442457083000,3.520082763671875,0.47958800196647644,1.4327303171157837,0.8795774579048157
1790964442467095000,3.530094970703125,0.5849392414093018,0.9801374673843384,0.7559100985527039
1790964442477107000,3.54010693359375,0.6144664883613586,0.24846568703651428,0.6132003664970398
1790964442487120100,3.5501201171875,0.7138410210609436,-0.28987419605255127,0.3627553880214691
1790964442497132000,3.560132080078125,0.8579755425453186,-0.4948398768901825,-0.01219346933066845
1790964442507144200,3.570144287109375,0.8913257718086243,-0.5326511859893799,-0.34718769788742065
1790964442517157000,3.5801572265625,0.798466682434082,-0.6133313775062561,-0.6130760908126831
1790964442527169000,3.5901689453125,0.6879609227180481,-0.8513175845146179,-0.8772624731063843
1790964442537182200,3.60018212890625,0.6135852336883545,-1.040745735168457,-1.1851468086242676
1790964442547194000,3.610194091796875,0.5932688117027283,-0.9761809706687927,-1.423821210861206
1790964442557206300,3.620206298828125,0.5506166815757751,-0.7676234841346741,-1.3915218114852905
1790964442567219000,3.630218994140625,0.25617197155952454,-0.5954075455665588,-1.201612114906311
1790964442577231000,3.640231201171875,0.1355757862329483,-0.6345781087875366,-0.7922743558883667
1790964442587243000,3.650242919921875,0.1332596391439438,-0.41150209307670593,-0.4372302293777466
1790964442597256200,3.660256103515625,0.004446792881935835,0.014732289128005505,-0.5072580575942993
1790964442607268000,3.67026806640625,-0.05256110057234764,-0.13221614062786102,-0.5480877757072449
1790964442617280000,3.680280029296875,0.042915087193250656,-0.2158990502357483,-0.45762819051742554
1790964442627293200,3.690293212890625,-0.021357638761401176,-0.1775636523962021,-0.14129844307899475
1790964442637305000,3.70030517578125,-0.05447458103299141,-0.06113264709711075,0.07747969031333923
1790964442647318000,3.710318115234375,-0.04740175977349281,-0.013311595655977726,0.10286467522382736
1790964442657330000,3.720329833984375,-0.08245295286178589,0.058923982083797455,0.1577918529510498
1790964442667342000,3.730342041015625,-0.1560925394296646,0.0867883712053299,0.17801427841186523
1790964442677355000,3.74035498046875,-0.2562449872493744,0.02899671345949173,0.04224633798003197
1790964442687367200,3.7503671875,-0.3957991600036621,-0.1475716531276703,-0.25709375739097595
1790964442697379000,3.760379150390625,-0.5705333948135376,-0.3992893695831299,-0.621301531791687
1790964442707392300,3.770392333984375,-0.6994783282279968,-0.5539277195930481,-0.9257064461708069
1790964442717404200,3.780404052734375,-0.7579517364501953,-0.49045950174331665,-1.201227068901062
1790964442727417000,3.7904169921875,-0.8408341407775879,-0.5779252052307129,-1.2991546392440796
1790964442737429200,3.80042919921875,-1.096961259841919,-0.8858808875083923,-1.2024515867233276
1790964442747441200,3.810441162109375,-1.4232178926467896,-1.3877748250961304,-0.954089343547821
1790964442757454000,3.8204541015625,-1.690058946609497,-2.2691051959991455,-0.48042991757392883
1790964442767466000,3.830466064453125,-2.009347915649414,-3.04392671585083,-0.16115817427635193
1790964442777478100,3.84047802734375,-2.44214129447937,-3.2287652492523193,-0.1758151650428772
1790964442787491000,3.850490966796875,-2.9430456161499023,-2.8964130878448486,-0.3005392253398895
1790964442797503000,3.8605029296875,-3.35170578956604,-2.365175485610962,-0.3587804436683655
1790964442807516200,3.87051611328125,-3.57854962348938,-1.729022741317749,-0.3877716064453125
1790964442817528000,3.880528076171875,-3.526477575302124,-0.9113050103187561,-0.42275142669677734
1790964442827540200,3.890540283203125,-3.1854937076568604,-0.31203651428222656,-0.35006019473075867
1790964442837553200,3.90055322265625,-2.618917942047119,-0.35707828402519226,-0.10916262865066528
1790964442847565000,3.91056494140625,-1.9962636232376099,-1.0364407300949097,0.17136278748512268
1790964442857578000,3.920577880859375,-1.4945224523544312,-1.8506418466567993,0.20671012997627258
1790964442867590100,3.930590087890625,-1.1358633041381836,-2.263162136077881,-0.07767500728368759
1790964442877602000,3.94060205078125,-0.8758629560470581,-2.239107131958008,-0.5368503332138062
1790964442887615200,3.950615234375,-0.7603467106819153,-2.047069787979126,-1.012870192527771
1790964442897627100,3.960627197265625,-0.6928712725639343,-1.83498215675354,-1.2233937978744507
1790964442907639000,3.97063916015625,-0.6213757991790771,-1.6063975095748901,-1.093666434288025
1790964442917652200,3.98065234375,-0.5773140788078308,-1.319050669670105,-0.8157016634941101
1790964442927664000,3.9906640625,-0.5349990725517273,-0.9614177346229553,-0.5907465815544128
1790964442937677000,4.000677001953125,-0.47722771763801575,-0.6556881666183472,-0.4309883117675781
1790964442947689000,4.01068896484375,-0.38235872983932495,-0.32002490758895874,-0.28922906517982483
1790964442957701000,4.020701171875,-0.2244335263967514,0.0907793864607811,-0.09855019301176071
1790964442967714000,4.030714111328125,-0.016881665214896202,0.6197904944419861,0.11509018391370773
1790964442977726000,4.040725830078125,0.19609612226486206,1.1498892307281494,0.2649925947189331
1790964442987738000,4.050738037109375,0.3216814696788788,1.538741111755371,0.3282775580883026
1790964442997751000,4.0607509765625,0.3459029197692871,1.6555514335632324,0.3664630353450775
1790964443007763200,4.07076318359375,0.31172019243240356,1.529631495475769,0.3926629424095154
1790964443017776000,4.080776123046875,0.28389492630958557,1.2369037866592407,0.41003474593162537
1790964443027788300,4.090788330078125,0.2987697720527649,0.7812347412109375,0.483582466840744
1790964443037800200,4.10080029296875,0.3326840400695801,0.26880770921707153,0.6036641597747803
1790964443047813000,4.110813232421875,0.33566758036613464,0.0030892151407897472,0.639415979385376
1790964443057825000,4.120824951171875,0.3675578832626343,0.16037951409816742,0.6349123120307922
1790964443067837000,4.1308369140625,0.4957411587238312,0.5566264390945435,0.7621980905532837
1790964443077850000,4.14085009765625,0.6330258250236511,0.9876042008399963,0.957629382610321
1790964443087862000,4.150862060546875,0.6893178224563599,1.1277706623077393,1.1612346172332764
1790964443097875200,4.160875244140625,0.6794540286064148,0.9091796875,1.384497880935669
1790964443107887000,4.17088720703125,0.6313690543174744,0.8187147378921509,1.4786258935928345
1790964443117899300,4.180899169921875,0.49783092737197876,1.0207257270812988,1.3130699396133423
1790964443127912000,4.190911865234375,0.23528294265270233,1.2157695293426514,0.9883066415786743
1790964443137924000,4.200924072265625,-0.10509408265352249,1.1668297052383423,0.7015110850334167
1790964443147936000,4.21093603515625,-0.4378403425216675,0.8444377183914185,0.5243226885795593
1790964443157949200,4.22094921875,-0.6602219939231873,0.3309864103794098,0.43213579058647156
1790964443167961000,4.230961181640625,-0.7383517026901245,-0.3452357351779938,0.4039912223815918
1790964443177974000,4.24097412109375,-0.6666995882987976,-1.027881383895874,0.3876785635948181
1790964443187986200,4.250986083984375,-0.5773974061012268,-1.3909823894500732,0.2514466941356659
1790964443197998000,4.260998046875,-0.5309058427810669,-1.4449646472930908,-0.015315493568778038
1790964443208011300,4.27101123046875,-0.5116807222366333,-1.2645107507705688,-0.34014764428138733
1790964443218023200,4.281023193359375,-0.47240951657295227,-0.9372703433036804,-0.582363486289978
1790964443228036000,4.2910361328125,-0.4123469889163971,-0.6267023086547852,-0.6248398423194885
1790964443238048000,4.301048095703125,-0.35272014141082764,-0.4009389579296112,-0.5249488949775696
1790964443248060000,4.311059814453125,-0.2925659716129303,-0.29292938113212585,-0.3177326023578644
1790964443258073000,4.321072998046875,-0.24133554100990295,-0.2297901064157486,-0.05929866433143616
1790964443268085000,4.3310849609375,-0.2168847918510437,0.019406670704483986,0.09378968924283981
1790964443278097200,4.34109716796875,-0.22416427731513977,0.4298642575740814,0.0651087760925293
1790964443288110000,4.351110107421875,-0.25346413254737854,0.7484621405601501,-0.07127569615840912
1790964443298122200,4.361122314453125,-0.2989530563354492,0.8147732615470886,-0.22480455040931702
1790964443308135000,4.371135009765625,-0.3547441363334656,0.5563923120498657,-0.3372064232826233
1790964443318147000,4.38114697265625,-0.33756569027900696,0.14801791310310364,-0.3505949378013611
1790964443328159000,4.391158935546875,-0.18953971564769745,-0.2422664761543274,-0.1813470721244812
1790964443338172200,4.401172119140625,0.026985391974449158,-0.5110814571380615,0.13782373070716858
1790964443348184000,4.41118408203125,0.17218999564647675,-0.48674893379211426,0.39542490243911743
1790964443358197200,4.421197265625,0.22824154794216156,-0.2063034176826477,0.3968467712402344
1790964443368209200,4.431209228515625,0.24230968952178955,0.12885220348834991,0.16485801339149475
1790964443378221600,4.4412216796875,0.24987760186195374,0.2700255811214447,-0.07515965402126312
1790964443388234500,4.451234375,0.23887383937835693,0.27163541316986084,-0.16699334979057312
1790964443398246400,4.461246337890625,0.17546530067920685,0.195094034075737,-0.07675960659980774
1790964443408258600,4.471258544921875,0.08631465584039688,0.15449734032154083,0.11072400212287903
1790964443418271500,4.481271484375,-0.05470052734017372,0.32759934663772583,0.24486343562602997
1790964443428283400,4.491283447265625,-0.2695145606994629,0.6854618787765503,0.23383182287216187
1790964443438296600,4.501296630859375,-0.47321921586990356,0.9473816156387329,0.13272970914840698
1790964443448308500,4.51130859375,-0.051724713295698166,0.6647778749465942,0.3082674443721771
1790964443458320600,4.521320556640625,0.7029309868812561,0.6674423813819885,0.28471311926841736
1790964443468333600,4.53133349609375,1.316210150718689,0.5240128040313721,0.2934243083000183
1790964443478345700,4.541345703125,1.3967758417129517,0.25664499402046204,0.34381505846977234
1790964443488358400,4.5513583984375,0.9920597076416016,0.2779044806957245,0.26491305232048035
1790964443498370600,4.56137060546875,0.4074537754058838,0.6942620277404785,-0.006168791558593512
1790964443508382500,4.571382568359375,0.24375541508197784,-0.2681620419025421,0.47824475169181824
1790964443518395600,4.581395751953125,0.5815384984016418,-1.953162670135498,1.4808721542358398
1790964443528407600,4.591407470703125,0.6030309796333313,-1.878908395767212,1.598334550857544
1790964443538419500,4.60141943359375,0.31008195877075195,-0.9589234590530396,1.3285284042358398
1790964443548432600,4.6114326171875,0.15061135590076447,-0.06613597273826599,1.1291176080703735
1790964443558444500,4.621444580078125,0.05396230146288872,0.9660496115684509,0.7318551540374756
1790964443568457700,4.631457763671875,-0.017910819500684738,1.576157808303833,0.2553110122680664
1790964443578469600,4.6414697265625,-0.0857926607131958,2.0648655891418457,-0.2979777455329895
1790964443588481800,4.651481689453125,-0.21199719607830048,3.077376127243042,-1.0393754243850708
1790964443598494500,4.661494384765625,-0.35819464921951294,4.111653804779053,-1.7759525775909424
1790964443608506400,4.67150634765625,-0.4088729918003082,4.1430439949035645,-2.069880485534668
1790964443618519600,4.68151953125,0.061891067773103714,1.633309245109558,-1.1691983938217163
1790964443628531500,4.691531494140625,0.45632651448249817,-0.3965359926223755,-0.2446812391281128
1790964443638543600,4.701543701171875,0.4349117577075958,-0.3080199658870697,0.10808747261762619
1790964443648556500,4.711556640625,0.4343900680541992,0.13571274280548096,0.43350979685783386
1790964443658568700,4.721568603515625,0.4447880983352661,0.619810163974762,0.5897137522697449
1790964443668581400,4.731581298828125,0.43126270174980164,1.0121921300888062,0.564523458480835
1790964443678593500,4.741593505859375,0.5164574980735779,1.0847454071044922,0.5982917547225952
1790964443688605400,4.75160546875,0.7335227131843567,0.9515542984008789,0.7858518362045288
1790964443698618600,4.76161865234375,0.9242998361587524,0.9584680795669556,0.9026181101799011
1790964443708630500,4.771630615234375,0.9829484820365906,1.0858889818191528,0.8561230301856995
1790964443718642400,4.781642333984375,0.8631283640861511,1.192948579788208,0.7235181331634521
1790964443728655600,4.791655517578125,0.6393272280693054,1.2827727794647217,0.5387413501739502
1790964443738667500,4.80166748046875,0.3728329539299011,1.3302921056747437,0.3321581184864044
1790964443748680700,4.8116806640625,0.11619159579277039,1.3555138111114502,0.17094580829143524
1790964443758692600,4.821692626953125,-0.06572628021240234,1.3354548215866089,0.16534091532230377
1790964443768704800,4.831704833984375,-0.04957287758588791,1.1458723545074463,0.4080052375793457
1790964443778717400,4.841717529296875,0.15824450552463531,0.6520783305168152,0.6745532751083374
1790964443788729600,4.8517294921875,0.39359068870544434,-0.03048396296799183,0.7089378833770752
1790964443798742500,4.861742431640625,0.5264848470687866,-0.5340802669525146,0.512454628944397
1790964443808754400,4.87175439453125,0.5574491620063782,-0.6950446367263794,0.2007521688938141
1790964443818766600,4.8817666015625,0.5586438179016113,-0.6574118137359619,-0.0892527624964714
1790964443828779500,4.891779541015625,0.5407207608222961,-0.5655878782272339,-0.2755081057548523
1790964443838791700,4.901791748046875,0.4319489896297455,-0.4904278814792633,-0.3751028776168823
1790964443848804400,4.911804443359375,0.3061641752719879,-0.5281688570976257,-0.3639833927154541
1790964443858816500,4.92181640625,0.23550467193126678,-0.7311315536499023,-0.2680020034313202
1790964443868828400,4.931828369140625,0.15924398601055145,-0.8985762000083923,-0.2207503318786621
1790964443878841600,4.941841552734375,0.14593537151813507,-0.8897528648376465,-0.33548757433891296
1790964443888853500,4.951853515625,0.16020353138446808,-0.7731746435165405,-0.4679390788078308
1790964443898866700,4.96186669921875,0.16096465289592743,-0.5991178750991821,-0.49370065331459045
1790964443908878600,4.971878662109375,0.23085053265094757,-0.5241256356239319,-0.36946043372154236
1790964443918890500,4.981890380859375,0.43922021985054016,-0.347893089056015,-0.1885087639093399
1790964443928903700,4.991903564453125,0.651466965675354,-0.08298179507255554,0.07317715883255005
1790964443938915600,5.00191552734375,0.7766592502593994,0.03737231716513634,0.4149659276008606
1790964443948927700,5.011927734375,0.8582771420478821,0.14501063525676727,0.5124264359474182
1790964443958940400,5.0219404296875,0.9063328504562378,0.3447248041629791,0.37450212240219116
1790964443968952600,5.03195263671875,0.8921408653259277,0.5305487513542175,0.2829205393791199
1790964443978965500,5.041965576171875,0.7641586661338806,0.6797358393669128,0.29310286045074463
1790964443988977700,5.051977783203125,0.5254446268081665,0.5991331338882446,0.3546658456325531
1790964443998989600,5.061989501953125,0.04493445158004761,0.46658918261528015,0.500188946723938
1790964444009002500,5.07200244140625,-0.5965294241905212,0.41597554087638855,0.5838609337806702
1790964444019014700,5.0820146484375,-1.2206257581710815,0.314287006855011,0.6966463327407837
1790964444029027600,5.092027587890625,-1.7311145067214966,0.221991166472435,0.8616054654121399
1790964444039039500,5.10203955078125,-2.096126079559326,0.34150850772857666,1.0077913999557495
1790964444049051600,5.1120517578125,-2.341801643371582,0.6611618399620056,0.9667243957519531
1790964444059064600,5.122064697265625,-2.370103359222412,0.9699162244796753,0.5171306133270264
1790964444069076500,5.132076416015625,-2.115839958190918,1.0605913400650024,-0.2192528247833252
1790964444079089700,5.142089599609375,-1.6206014156341553,0.9248390197753906,-0.7951372265815735
1790964444089101600,5.1521015625,-0.8883554339408875,0.7412993311882019,-1.0948631763458252
1790964444099113500,5.162113525390625,-0.10275380313396454,0.6862331032752991,-1.2113831043243408
1790964444109126700,5.172126708984375,0.502018928527832,0.7676147818565369,-1.1492582559585571
1790964444119138600,5.182138671875,0.8143006563186646,1.0149215459823608,-0.9240187406539917
1790964444129151500,5.1921513671875,0.901170015335083,1.1753953695297241,-0.5753473043441772
1790964444139163400,5.202163330078125,0.8848219513893127,0.8658662438392639,-0.21852898597717285
1790964444149176600,5.212176513671875,0.8704012036323547,0.18874986469745636,0.09605877101421356
1790964444159188500,5.2221884765625,0.8643699288368225,-0.25889265537261963,0.17699357867240906
1790964444169200600,5.23220068359375,0.826000988483429,-0.3131319284439087,-0.020781025290489197
1790964444179213600,5.242213623046875,0.8459893465042114,-0.2256111055612564,-0.18790236115455627
1790964444189225700,5.252225830078125,0.9290221333503723,-0.18022045493125916,-0.21014028787612915
1790964444199237600,5.262237548828125,0.9574466347694397,-0.28597939014434814,-0.24639549851417542
1790964444209250600,5.27225048828125,0.9422873854637146,-0.46717342734336853,-0.328124463558197
1790964444219262700,5.2822626953125,0.9265224933624268,-0.6022151112556458,-0.41407397389411926
1790964444229275400,5.292275390625,0.945248544216156,-0.6850402355194092,-0.46145427227020264
1790964444239287600,5.30228759765625,1.0032676458358765,-0.5615729093551636,-0.3845488429069519
1790964444249299500,5.312299560546875,0.9968701601028442,0.03135810047388077,-0.2603696286678314
1790964444259312600,5.322312744140625,0.9559957385063171,0.6077492237091064,-0.10872020572423935
1790964444269324500,5.332324462890625,0.9463633298873901,0.7893962860107422,-0.06501453369855881
1790964444279337700,5.342337646484375,0.9151082038879395,0.6077180504798889,-0.06533464789390564
1790964444289349600,5.352349609375,0.9165908098220825,0.2513434588909149,-0.03531176224350929
1790964444299361500,5.362361572265625,0.9731898903846741,0.1328575611114502,-0.04094088450074196
1790964444309374500,5.37237451171875,0.994712233543396,0.24086818099021912,-0.054228462278842926
1790964444319386400,5.382386474609375,0.9652102589607239,0.27363330125808716,-0.1202535554766655
1790964444329399600,5.392399658203125,0.8310324549674988,0.13237179815769196,-0.20684783160686493
1790964444339411500,5.402411376953125,0.3682805597782135,0.08578192442655563,-0.43263062834739685
1790964444349424600,5.412424560546875,-0.6239520311355591,0.06691741943359375,-0.7891099452972412
1790964444359436500,5.4224365234375,-1.7713119983673096,0.06339778751134872,-0.9777647852897644
1790964444369448700,5.43244873046875,-2.730881929397583,0.2043738216161728,-0.8481916189193726
1790964444379461000,5.442461181640625,-3.0192818641662598,0.6377382874488831,-0.46141698956489563
1790964444389473000,5.45247314453125,-2.4485068321228027,0.0838785320520401,-0.25189098715782166
1790964444399486000,5.46248583984375,-1.4986494779586792,-0.5648462176322937,-0.28691500425338745
1790964444409497900,5.472497802734375,-0.9885472655296326,-0.5310911536216736,-0.2684987187385559
1790964444419509800,5.482509765625,-0.8066922426223755,-0.09470879286527634,-0.09220916777849197
1790964444429523000,5.49252294921875,-0.465945303440094,0.39742153882980347,-0.025724681094288826
1790964444439534800,5.502534912109375,0.02418791688978672,0.6507906913757324,-0.16059674322605133
1790964444449548000,5.512548095703125,0.43204039335250854,0.6570536494255066,-0.3618382513523102
1790964444459560000,5.522559814453125,0.6752458214759827,0.5230340361595154,-0.3547670245170593
1790964444469571800,5.53257177734375,0.7989128828048706,0.4540105164051056,-0.169197678565979
1790964444479585000,5.5425849609375,0.8574308156967163,0.6578919887542725,0.09955254197120667
1790964444489597000,5.552596923828125,0.9205706119537354,0.966571033000946,0.25110745429992676
1790964444499609900,5.56260986328125,0.9851171374320984,0.9000431299209595,0.19217675924301147
1790964444509621800,5.572621826171875,1.1704838275909424,0.5142408013343811,-0.13230997323989868
1790964444519634000,5.582634033203125,1.4965734481811523,0.11808416992425919,-0.6420168876647949
1790964444529646800,5.592646728515625,1.8505240678787231,-0.0020209322683513165,-0.7387474775314331
1790964444539659000,5.602658935546875,1.8626699447631836,0.31680017709732056,-0.36001160740852356
1790964444549672000,5.612671875,1.506003499031067,0.5609774589538574,0.1528509259223938
1790964444559684000,5.62268408203125,0.921272873878479,0.6058277487754822,0.4898041784763336
1790964444569696000,5.632696044921875,0.46145740151405334,0.31943005323410034,0.5061938166618347
1790964444579709000,5.642708984375,0.2512657940387726,0.05852629989385605,0.40300536155700684
1790964444589721000,5.65272119140625,0.14697855710983276,-0.06678501516580582,0.26832902431488037
1790964444599733800,5.662733642578125,0.10091305524110794,-0.06491973996162415,0.1292920708656311
1790964444609746000,5.672745849609375,-0.017005326226353645,0.04336705431342125,0.08393736183643341
1790964444619757800,5.6827578125,-0.038351625204086304,0.06124219298362732,0.07274836301803589
1790964444629771000,5.69277099609375,0.20887574553489685,-0.05276107415556908,0.051005247980356216
1790964444639783000,5.702782958984375,0.7197387218475342,-0.31684571504592896,-0.017883537337183952
1790964444649796000,5.712796142578125,1.0134257078170776,-0.34200382232666016,0.03803272545337677
1790964444659808000,5.72280810546875,0.9983580708503723,-0.11236954480409622,0.19288542866706848
1790964444669820000,5.73281982421875,0.9034497141838074,0.08689216524362564,0.41187795996665955
1790964444679832800,5.742832763671875,0.8826192617416382,0.12645848095417023,0.5237155556678772
1790964444689844700,5.7528447265625,0.9956467151641846,0.13926109671592712,0.48527947068214417
1790964444699858000,5.76285791015625,1.2299007177352905,0.2526251971721649,0.38551265001296997
1790964444709869800,5.772869873046875,1.4920916557312012,0.4333481192588806,0.29806774854660034
1790964444719883000,5.782883056640625,1.5562744140625,0.545183002948761,0.2832680344581604
1790964444729895000,5.79289501953125,1.4206770658493042,0.46943366527557373,0.3091835379600525
1790964444739907000,5.802906982421875,1.1259360313415527,0.35582321882247925,0.2469681054353714
1790964444749920000,5.812919921875,0.7736056447029114,0.23032575845718384,0.08836913108825684
1790964444759932200,5.82293212890625,0.43148884177207947,-0.03582043945789337,-0.20562094449996948
1790964444769944800,5.83294482421875,0.2509419620037079,-0.08369475603103638,-0.5510801076889038
1790964444779956700,5.842956787109375,0.37218689918518066,-0.26375216245651245,-0.81244295835495
1790964444789969000,5.852968994140625,0.6894881129264832,-0.4836762547492981,-0.9277980923652649
1790964444799981800,5.86298193359375,0.968340277671814,-0.5061264634132385,-0.8079171776771545
1790964444809994000,5.872993896484375,1.103352427482605,-0.3794369399547577,-0.4256981909275055
1790964444820007000,5.8830068359375,1.0761977434158325,-0.1761098951101303,0.17876242101192474
1790964444830019000,5.89301904296875,0.9436541199684143,-0.12409064918756485,0.6799386739730835
1790964444840031000,5.903031005859375,0.7576844692230225,-0.20935679972171783,0.7229822874069214
1790964444850044000,5.9130439453125,0.4466358423233032,-0.19484417140483856,0.5884737372398376
1790964444860055800,5.923055908203125,0.08665183186531067,-0.09070579707622528,0.4097737967967987
1790964444870069000,5.933069091796875,-0.22977910935878754,-0.062257107347249985,0.24323329329490662
1790964444880081000,5.943080810546875,-0.42886051535606384,-0.0364670567214489,0.16671481728553772
1790964444890092800,5.9530927734375,-0.4972230792045593,0.0010992272291332483,0.07201039791107178
1790964444900106000,5.96310595703125,-0.4473303556442261,-0.0018158690072596073,-0.04188607633113861
1790964444910118000,5.973117919921875,-0.37458422780036926,-0.0304014403373003,-0.1283048540353775
1790964444920131000,5.983131103515625,-0.274329274892807,-0.07200001925230026,-0.20663321018218994
1790964444930143000,5.99314306640625,-0.21284353733062744,-0.08169232308864594,-0.38488471508026123
1790964444940155100,6.003155029296875,-0.25496354699134827,-0.1605658233165741,-0.6155163049697876
1790964444950167800,6.013167724609375,-0.43708595633506775,-0.23411408066749573,-0.7965670824050903
1790964444960180000,6.023179931640625,-0.6878686547279358,-0.22438448667526245,-0.789495050907135
1790964444970193000,6.03319287109375,-0.8021001815795898,-0.12090390920639038,-0.7584785223007202
1790964444980204800,6.043204833984375,-0.8441211581230164,-0.07238830626010895,-0.7618666291236877
1790964444990217000,6.053217041015625,-0.828985869884491,-0.1667640656232834,-0.6646260619163513
1790964445000230000,6.06322998046875,-0.7945093512535095,-0.19159512221813202,-0.44139033555984497
1790964445010242000,6.073241943359375,-0.6939156651496887,-0.1717742681503296,-0.20425207912921906
1790964445020255000,6.0832548828125,-0.5467653274536133,-0.2482282966375351,-0.015544215217232704
1790964445030267000,6.093266845703125,-0.41344934701919556,-0.4342533051967621,0.13254059851169586
1790964445040279800,6.10327978515625,-0.29040011763572693,-0.6344870924949646,0.20020699501037598
1790964445050292000,6.1132919921875,-0.14086708426475525,-0.6148414611816406,0.21657797694206238
1790964445060304000,6.123303955078125,-0.005444278009235859,-0.54047030210495,0.16444580256938934
1790964445070317000,6.133317138671875,0.12168943881988525,-0.4228549897670746,-0.0336286798119545
1790964445080329000,6.143328857421875,0.40190431475639343,-0.109004907310009,-0.3274877369403839
1790964445090342100,6.153342041015625,0.5522794127464294,0.026128945872187614,-0.6401188969612122
1790964445100354000,6.16335400390625,0.5723963975906372,-0.15447863936424255,-0.8558570146560669
1790964445110366000,6.173365966796875,0.5396014451980591,-0.516704261302948,-0.7736921310424805
1790964445120379000,6.18337890625,0.44503793120384216,-0.8287140727043152,-0.4087623655796051
1790964445130390800,6.193390869140625,0.4271326959133148,0.8398154377937317,0.016960730776190758
1790964445140404000,6.203404052734375,0.20591004192829132,-0.11973238736391068,0.8458088636398315
1790964445150416000,6.213415771484375,-0.08469276130199432,-0.07240428775548935,0.8262165188789368
1790964445160428000,6.223427978515625,-0.21321691572666168,-0.25555840134620667,0.01926649548113346
1790964445170441000,6.23344091796875,-0.028316570445895195,-0.15640197694301605,-0.4452897310256958
1790964445180452900,6.243452880859375,0.28213265538215637,0.029158292338252068,-0.7010059356689453
1790964445190466000,6.253466064453125,0.40488332509994507,0.2118476927280426,-0.8573289513587952
1790964445200478000,6.26347802734375,0.20750980079174042,0.29335692524909973,-0.7445302605628967
1790964445210490000,6.273489990234375,-0.00565839558839798,0.33680132031440735,-0.5547957420349121
1790964445220502800,6.283502685546875,-0.1655396670103073,0.26103758811950684,-0.4634104073047638
1790964445230515000,6.293514892578125,-0.23882906138896942,0.09661669284105301,-0.4522397816181183
1790964445240528000,6.30352783203125,-0.25937721133232117,-0.1695460081100464,-0.45983538031578064
1790964445250540000,6.3135400390625,-0.23309926688671112,-0.15663740038871765,-0.5320765376091003
1790964445260553000,6.323552978515625,-0.24360278248786926,-0.24927864968776703,-0.5175266265869141
1790964445270565000,6.333565185546875,-0.16167356073856354,-0.38442105054855347,-0.46317899227142334
1790964445280577000,6.343576904296875,-0.10233700275421143,-0.27882644534111023,-0.4184376299381256
1790964445290590000,6.35358984375,-0.06860646605491638,-0.42602574825286865,-0.3780086934566498
1790964445300601900,6.363601806640625,0.008595374412834644,-0.38133683800697327,-0.3697102963924408
1790964445310614800,6.37361474609375,0.15567776560783386,-0.14054392278194427,-0.39637118577957153
1790964445320627000,6.383626953125,0.1434410810470581,-0.1381864845752716,-0.359724223613739
1790964445330638800,6.393638916015625,0.06701500713825226,-0.1857268363237381,-0.17268696427345276
1790964445340652000,6.403652099609375,0.0654892846941948,-0.1290779411792755,0.07789598405361176
1790964445350664000,6.413663818359375,0.005086660385131836,-0.10524718463420868,0.20187465846538544
1790964445360677000,6.423677001953125,0.004907961934804916,-0.1591801792383194,0.21188920736312866
1790964445370689000,6.43368896484375,0.1770610809326172,-0.1496649831533432,0.06668727099895477
1790964445380701000,6.443700927734375,0.35407236218452454,-0.11787775903940201,-0.1966833770275116
1790964445390713900,6.4537138671875,0.3505389392375946,-0.06738749891519547,-0.39033958315849304
1790964445400725800,6.463725830078125,0.26125168800354004,-0.20709213614463806,-0.3979780673980713
1790964445410739000,6.473739013671875,0.17805160582065582,-0.21255241334438324,-0.2897418737411499
1790964445420750800,6.483750732421875,0.18629328906536102,-0.1393546313047409,-0.12340987473726273
1790964445430762800,6.4937626953125,0.2765744626522064,-0.1513148844242096,-0.01130943838506937
1790964445440776000,6.50377587890625,0.322304904460907,-0.14465485513210297,0.022580087184906006
1790964445450787800,6.513787841796875,0.33500367403030396,-0.10752958804368973,-0.00679431390017271
1790964445460800800,6.52380078125,0.3421449363231659,-0.1470082849264145,0.0016119536012411118
1790964445470812700,6.533812744140625,0.27061909437179565,-0.03878168761730194,0.1582585573196411
1790964445480825900,6.543825927734375,0.10124018788337708,0.012724380008876324,0.30493107438087463
1790964445490837800,6.553837646484375,-0.10906804352998734,0.05490299314260483,0.38624751567840576
1790964445500850000,6.563849853515625,-0.24035842716693878,0.043685492128133774,0.32468852400779724
1790964445510862800,6.57386279296875,-0.18618734180927277,0.03723558038473129,0.17576910555362701
1790964445520874800,6.583874755859375,-0.03082570806145668,0.019866712391376495,-0.060051143169403076
1790964445530888000,6.593887939453125,0.16515471041202545,0.03986465558409691,-0.563587486743927
1790964445540899800,6.60389990234375,0.38714516162872314,0.16554881632328033,-0.8379546403884888
1790964445550912000,6.613912109375,0.5670169591903687,0.2205822467803955,-0.7867036461830139
1790964445560924700,6.623924560546875,0.21432465314865112,0.3067706525325775,-0.49902984499931335
1790964445570936800,6.633936767578125,-0.16227561235427856,-0.012495222501456738,-0.3402612507343292
1790964445580949800,6.64394970703125,-0.29420673847198486,0.11521187424659729,-0.4008129835128784
1790964445590962000,6.6539619140625,-0.3728805184364319,0.24182868003845215,-0.4255468249320984
1790964445600973800,6.663973876953125,-0.3425505757331848,0.2663545310497284,-0.3735795021057129
1790964445610987000,6.673987060546875,-0.17410165071487427,0.25747182965278625,-0.2655380070209503
1790964445620999000,6.6839990234375,-0.01848408579826355,0.1967669278383255,-0.11963910609483719
1790964445631011800,6.69401171875,0.05233602225780487,0.07632067054510117,0.031008992344141006
1790964445641024000,6.70402392578125,0.10915776342153549,0.021660884842276573,0.11836280673742294
1790964445651036000,6.714035888671875,0.13730551302433014,0.009391967207193375,0.17594461143016815
1790964445661048800,6.724048828125,0.04806990548968315,0.04731591045856476,0.20771293342113495
1790964445671060700,6.734060791015625,-0.00672196876257658,0.0771971121430397,0.23216474056243896
1790964445681074000,6.744073974609375,0.0029128154274076223,0.017105547711253166,0.3498953580856323
1790964445691085800,6.7540859375,0.02237839251756668,-0.10966970771551132,0.606645405292511
1790964445701099000,6.76409912109375,0.034743182361125946,-0.21768511831760406,0.9270578026771545
1790964445711111000,6.77411083984375,0.05610599368810654,-0.28782930970191956,1.186923623085022
1790964445721122800,6.784122802734375,0.05156184360384941,-0.35308876633644104,1.2153962850570679
1790964445731135700,6.7941357421875,0.028001390397548676,-0.2950422167778015,1.0473655462265015
1790964445741147600,6.804147705078125,0.07580540329217911,0.08523213863372803,0.7364361882209778
1790964445751160800,6.814160888671875,0.13342447578907013,0.11133963614702225,0.4078710377216339
1790964445761172700,6.8241728515625,0.05770628899335861,0.19142302870750427,0.13986463844776154
1790964445771185000,6.834184814453125,-0.08328225463628769,0.2141381949186325,-0.07197624444961548
1790964445781197800,6.84419775390625,-0.15429651737213135,0.10763944685459137,-0.39596763253211975
1790964445791210000,6.8542099609375,-0.19269849359989166,0.026771491393446922,-0.48937374353408813
1790964445801223000,6.864222900390625,-0.314744234085083,-0.1509721428155899,-0.6749414801597595
1790964445811235000,6.874235107421875,-0.42916083335876465,-0.39698803424835205,-0.9643450379371643
1790964445821247000,6.8842470703125,-0.483151376247406,-0.8894723057746887,-1.3222811222076416
1790964445831260000,6.894260009765625,-0.5076252818107605,-1.2665103673934937,-1.583457350730896
1790964445841271800,6.904271728515625,-0.5663261413574219,-1.4348618984222412,-1.6754183769226074
1790964445851284700,6.91428466796875,-0.5919840931892395,-1.5040103197097778,-1.6801279783248901
1790964445861297000,6.924296875,-0.576044499874115,-1.360771894454956,-1.6958355903625488
1790964445871308800,6.934308837890625,-0.5034019947052002,-1.0711331367492676,-1.6361380815505981
1790964445881322000,6.944322021484375,-0.399507075548172,-0.670150876045227,-1.4404040575027466
1790964445891334000,6.954333984375,-0.2762005925178528,-0.37739649415016174,-1.2340642213821411
1790964445901346800,6.964346923828125,-0.26802387833595276,-0.2694990634918213,-1.0037438869476318
1790964445911358700,6.974358642578125,-0.24244554340839386,-0.03172031790018082,-0.7642236948013306
1790964445921372000,6.984371826171875,-0.2119624763727188,0.13633686304092407,-0.5169004201889038
1790964445931383800,6.9943837890625,-0.2116604745388031,0.20025566220283508,-0.286670982837677
1790964445941395700,7.004395751953125,-0.2868090271949768,0.09674099087715149,-0.15045134723186493
1790964445951409000,7.014408935546875,-0.3770100176334381,-0.04354821518063545,-0.06538465619087219
1790964445961420800,7.0244208984375,-0.3173360228538513,0.061079394072294235,-0.06289966404438019
1790964445971434000,7.03443408203125,-0.21072277426719666,0.29403090476989746,0.014077145606279373
1790964445981446000,7.04444580078125,-0.17097696661949158,0.4032074511051178,0.19409538805484772
1790964445991458000,7.0544580078125,-0.1364232450723648,0.49752968549728394,0.45631635189056396
1790964446001470700,7.064470703125,-0.1332053393125534,0.42208579182624817,0.6640429496765137
1790964446011483000,7.07448291015625,-0.1901160329580307,0.1487882137298584,0.646237850189209
1790964446021495800,7.084495849609375,-0.19981633126735687,0.14424511790275574,0.5336950421333313
1790964446031508000,7.094508056640625,-0.18223734200000763,0.20679105818271637,0.47879794239997864
1790964446041519900,7.104519775390625,-0.20768330991268158,0.2243085354566574,0.46722838282585144
1790964446051532800,7.11453271484375,-0.21869441866874695,0.2677558660507202,0.48494985699653625
1790964446061545000,7.124544921875,-0.1911325603723526,0.17489410936832428,0.47164735198020935
1790964446071558000,7.134557861328125,-0.17351068556308746,0.05149414390325546,0.45112982392311096
1790964446081569800,7.14456982421875,-0.14735817909240723,-0.08152488619089127,0.3927035331726074
1790964446091582700,7.154582763671875,-0.13591191172599792,-0.0811949223279953,0.35605552792549133
1790964446101595000,7.164594970703125,-0.11725300550460815,0.013919074088335037,0.27565282583236694
1790964446111606800,7.174606689453125,-0.12282487004995346,0.00012869405327364802,0.19822728633880615
1790964446121620000,7.184619873046875,-0.14653180539608002,-0.012315724976360798,0.12235967814922333
1790964446131631900,7.1946318359375,-0.16566261649131775,0.016250140964984894,0.07430053502321243
1790964446141645000,7.20464501953125,-0.17737360298633575,0.03204214945435524,0.01475039217621088
1790964446151657000,7.214656982421875,-0.19104121625423431,0.02994544617831707,-0.04045240953564644
1790964446161668900,7.2246689453125,-0.19989623129367828,0.071253202855587,-0.09520620107650757
1790964446171681800,7.234681884765625,-0.2258596420288086,0.08715148270130157,-0.18259835243225098
1790964446181693700,7.244693603515625,-0.24539686739444733,0.07398854196071625,-0.2859441936016083
1790964446191707000,7.254706787109375,-0.2562479078769684,0.043088145554065704,-0.39449945092201233
1790964446201718800,7.26471875,-0.24036189913749695,0.030160363763570786,-0.45450684428215027
1790964446211731000,7.27473095703125,-0.2090388536453247,0.018788665533065796,-0.494284063577652
1790964446221743900,7.284743896484375,-0.18123012781143188,0.03841828927397728,-0.5008732676506042
1790964446231755800,7.294755859375,-0.14434295892715454,0.056814875453710556,-0.46382391452789307
1790964446241769000,7.30476904296875,-0.06700128316879272,0.038516294211149216,-0.39141443371772766
1790964446251780900,7.31478076171875,0.06423982232809067,0.022205768153071404,-0.2986786365509033
1790964446261793000,7.32479296875,0.19710731506347656,0.017896240577101707,-0.15508736670017242
1790964446271805700,7.3348056640625,0.315311461687088,0.0699317455291748,0.010523423552513123
1790964446281817900,7.34481787109375,0.4352112412452698,0.1749654859304428,0.17241673171520233
1790964446291830800,7.354830810546875,0.5448919534683228,0.33065786957740784,0.32612237334251404
1790964446301843000,7.364843017578125,0.6549901962280273,0.5088907480239868,0.5121839046478271
1790964446311855900,7.37485595703125,0.751769483089447,0.592341423034668,0.6975385546684265
1790964446321868000,7.384867919921875,0.8346095085144043,0.6244367957115173,0.8173019886016846
1790964446331880000,7.3948798828125,0.9235231280326843,0.6106647849082947,0.8804303407669067
1790964446341892900,7.404892822265625,0.9583240151405334,0.6179322600364685,0.8765347003936768
1790964446351904800,7.41490478515625,0.8962143063545227,0.4495618939399719,0.7066510915756226
1790964446361917700,7.424917724609375,0.7112034559249878,0.326343834400177,0.3080720007419586
1790964446371929900,7.434929931640625,0.4240539073944092,0.282484233379364,-0.23286738991737366
1790964446381941800,7.444941650390625,0.12555857002735138,0.3451041877269745,-0.7071033716201782
1790964446391955000,7.454954833984375,-0.129263237118721,0.29819563031196594,-1.0258947610855103
1790964446401966800,7.464966796875,-0.30149412155151367,0.21956925094127655,-1.1470930576324463
1790964446411980000,7.47497998046875,-0.3962259590625763,0.18838763236999512,-1.0874031782150269
1790964446421992000,7.484991943359375,-0.4604547619819641,0.12408880144357681,-0.9902507066726685
1790964446432003800,7.49500390625,-0.5477830171585083,0.08609294891357422,-0.8863317370414734
1790964446442016800,7.505016845703125,-0.632607102394104,0.10619981586933136,-0.7477107644081116
1790964446452028700,7.515028564453125,-0.7089633941650391,0.08088567107915878,-0.5647329688072205
1790964446462041900,7.525041748046875,-0.7211164236068726,0.03754698857665062,-0.3150789141654968
1790964446472053800,7.5350537109375,-0.5388321280479431,-0.019227877259254456,0.009094100445508957
1790964446482067000,7.54506689453125,-0.27176687121391296,0.04584459960460663,0.4342006742954254
1790964446492078800,7.555078857421875,-0.060773395001888275,0.06023019552230835,0.7115212082862854
1790964446502091000,7.565091064453125,0.03266334533691406,-0.0014139926061034203,0.7241805791854858
1790964446512103700,7.575103759765625,0.054225631058216095,0.05756277218461037,0.6606149077415466
1790964446522115800,7.58511572265625,0.042123161256313324,0.1302015632390976,0.5213022828102112
1790964446532128800,7.595128662109375,-0.010439914651215076,0.16387882828712463,0.34741249680519104
1790964446542141000,7.605140869140625,-0.06512606143951416,0.17163369059562683,0.16869281232357025
1790964446552152800,7.61515283203125,-0.13114555180072784,0.18754979968070984,-0.008231360465288162
1790964446562165800,7.625165771484375,-0.13966155052185059,0.24434597790241241,-0.19080837070941925
1790964446572178000,7.635177978515625,-0.11980928480625153,0.22179165482521057,-0.27378952503204346
1790964446582190800,7.64519091796875,-0.07949008792638779,0.22000788152217865,-0.2427559792995453
1790964446592203000,7.655203125,-0.05018626153469086,0.14601753652095795,-0.27901944518089294
1790964446602215000,7.66521484375,-0.10994973033666611,0.024822138249874115,-0.3404497802257538
1790964446612227800,7.675227783203125,-0.20645734667778015,0.004302748944610357,-0.37700697779655457
1790964446622239700,7.68523974609375,-0.3047277331352234,0.042931899428367615,-0.4163258969783783
1790964446632253000,7.6952529296875,-0.3975735306739807,0.014781222678720951,-0.41975605487823486
1790964446642264800,7.705264892578125,-0.47538575530052185,-0.0833197757601738,-0.39658522605895996
1790964446652278000,7.715278076171875,-0.546318531036377,-0.2294226586818695,-0.35943225026130676
1790964446662290000,7.7252900390625,-0.4683997631072998,0.027310596778988838,-0.08188773691654205
1790964446672301800,7.7353017578125,-0.15726184844970703,0.3097092807292938,0.015712853521108627
1790964446682314800,7.745314697265625,-0.11511465907096863,0.17252610623836517,-0.010724078863859177
1790964446692327000,7.755326904296875,-0.22933390736579895,0.18567706644535065,-0.07401303946971893
1790964446702339800,7.76533984375,-0.3384939730167389,0.22779256105422974,-0.13151495158672333
1790964446712351700,7.775351806640625,-0.36345338821411133,0.23338520526885986,-0.18433581292629242
1790964446722364000,7.785364013671875,-0.2808924615383148,0.23437508940696716,-0.28328609466552734
1790964446732376800,7.795376953125,0.027076033875346184,0.2127816528081894,-0.455466628074646
1790964446742389000,7.805388916015625,0.4896465837955475,-0.07565653324127197,-0.4694029688835144
1790964446752402000,7.81540185546875,0.6290279030799866,-0.13250276446342468,-0.47573328018188477
1790964446762413800,7.825413818359375,0.582065761089325,-0.13320611417293549,-0.4503592252731323
1790964446772426000,7.835426025390625,0.4002658426761627,-0.1481219381093979,-0.3711714744567871
1790964446782438700,7.845438720703125,0.16335637867450714,-0.14622151851654053,-0.2569516897201538
1790964446792450800,7.855450927734375,-0.058425817638635635,-0.12511302530765533,-0.1023421511054039
1790964446802463700,7.865463623046875,-0.16219934821128845,-0.1371537148952484,0.07305097579956055
1790964446812476000,7.875475830078125,-0.1188870295882225,-0.14048878848552704,0.1516890674829483
1790964446822488800,7.88548876953125,-0.07170034199953079,-0.15112891793251038,0.1299305111169815
1790964446832501000,7.8955009765625,-0.07362128049135208,-0.14943142235279083,0.05633671209216118
1790964446842513000,7.905512939453125,-0.08589046448469162,-0.15397131443023682,0.0024985154159367085
1790964446852525800,7.91552587890625,-0.08587874472141266,-0.15103863179683685,-0.004549007397145033
1790964446862538000,7.9255380859375,-0.09023461490869522,-0.14573122560977936,0.00995057262480259
1790964446872551000,7.935551025390625,-0.09874660521745682,-0.13806557655334473,0.018512900918722153
1790964446882562800,7.945562744140625,-0.10306918621063232,-0.12476522475481033,0.019440215080976486
1790964446892574700,7.95557470703125,-0.09865552932024002,-0.11951080709695816,0.026472024619579315
1790964446902588000,7.965587890625,-0.09861025214195251,-0.10959053039550781,0.03402554988861084
1790964446912599800,7.975599853515625,-0.10308116674423218,-0.10654254257678986,0.036338768899440765
1790964446922613000,7.985613037109375,-0.10065583139657974,-0.09727554023265839,0.028874462470412254
1790964446932625000,7.995625,-0.09407223016023636,-0.08780427277088165,0.020805884152650833
1790964446942637000,8.005636962890625,-0.0886676087975502,-0.0821533128619194,0.013333852402865887
1790964446952649700,8.015649658203126,-0.08417725563049316,-0.07496517896652222,0.010123145766556263
1790964446962661600,8.02566162109375,-0.07852815836668015,-0.06629206240177155,0.007379290647804737
1790964446972674800,8.0356748046875,-0.08502840250730515,-0.058639731258153915,0.006842663511633873
1790964446982686700,8.045686767578125,-0.08492187410593033,-0.0481969453394413,0.011990288272500038
1790964446992700000,8.055699951171874,-0.07817688584327698,-0.038070276379585266,0.009866682812571526
1790964447002711800,8.0657119140625,-0.07171765714883804,-0.03026348352432251,0.0014103478752076626
1790964447012724000,8.075723876953125,-0.06756392121315002,-0.020432956516742706,0.0027144975028932095
1790964447022737000,8.08573681640625,-0.058118220418691635,-0.014321268536150455,0.011363912373781204
1790964447032749000,8.0957490234375,-0.05259668827056885,-0.007542458828538656,0.023055989295244217
1790964447042761700,8.10576171875,-0.044519323855638504,-0.00009279834921471775,0.024443496018648148
1790964447052774000,8.11577392578125,-0.04417257755994797,0.004340299405157566,0.009838719852268696
1790964447062785800,8.125785888671874,-0.04971515014767647,0.012276253663003445,-0.0036706975661218166
1790964447072799000,8.135799072265625,-0.04959876835346222,0.015340486541390419,0.001842578873038292
1790964447082811000,8.145810791015625,-0.04870181530714035,0.014602790586650372,0.014955984428524971
1790964447092823800,8.15582373046875,-0.04853110760450363,0.016780192032456398,0.008021911606192589
1790964447102836000,8.1658359375,-0.04930635541677475,0.014946338720619678,-0.006306427996605635
1790964447112848000,8.175847900390625,-0.05340202897787094,0.009783001616597176,-0.018493052572011948
1790964447122860800,8.18586083984375,-0.0496072918176651,0.01077289879322052,-0.008620448410511017
1790964447132872700,8.195872802734375,-0.046638134866952896,0.006736345589160919,0.009466676041483879
1790964447142886000,8.205885986328125,-0.050906382501125336,0.0037362948060035706,0.01946178637444973
1790964447152897800,8.215897705078126,-0.05218176916241646,-0.0021703303791582584,0.016131769865751266
1790964447162911000,8.225910888671875,-0.05544786900281906,-0.010317206382751465,-0.004068573471158743
1790964447172923000,8.2359228515625,-0.057870812714099884,-0.019588202238082886,-0.014884470030665398
1790964447182934800,8.245934814453125,-0.05163901671767235,-0.02990315854549408,-0.009520862251520157
1790964447192948000,8.255947998046874,-0.04694839194417,-0.03975499048829079,-0.003535675350576639
1790964447202960000,8.2659599609375,-0.04208492860198021,-0.04544297233223915,0.002614096272736788
1790964447212972800,8.275972900390625,-0.043072160333395004,-0.04763954505324364,0.004441823810338974
1790964447222984700,8.285984619140624,-0.04606342315673828,-0.05894972383975983,0.008398216217756271
1790964447232996900,8.295996826171875,-0.05335649102926254,-0.05877102538943291,0.0036239672917872667
1790964447243009800,8.306009765625,-0.06339661031961441,-0.05402181297540665,-0.003255243878811598
1790964447253022000,8.31602197265625,-0.07391556352376938,-0.05072695016860962,0.001796505879610777
1790964447263035000,8.326034912109375,-0.06946941465139389,-0.05209821090102196,0.017562685534358025
1790964447273046800,8.336046875,-0.061306826770305634,-0.057139042764902115,0.031656667590141296
1790964447283059000,8.346058837890626,-0.05424598604440689,-0.0640598013997078,0.028875261545181274
1790964447293072000,8.35607177734375,-0.04292329028248787,-0.0707363411784172,0.016412999480962753
1790964447303083800,8.366083740234375,-0.05014791339635849,-0.07423733174800873,0.012326644733548164
1790964447313096700,8.3760966796875,-0.06145436316728592,-0.07783233374357224,0.023703936487436295
1790964447323108900,8.38610888671875,-0.05512882396578789,-0.08194026350975037,0.02614259161055088
1790964447333121800,8.396121826171875,-0.06309779733419418,-0.08419143408536911,0.015582624822854996
1790964447343134000,8.406134033203125,-0.06881054490804672,-0.08285132795572281,0.012682443484663963
1790964447353145900,8.416145751953126,-0.06877992302179337,-0.08421247452497482,0.020221052691340446
1790964447363159000,8.426158935546875,-0.06679053604602814,-0.09068767726421356,0.022506844252347946
1790964447373171000,8.4361708984375,-0.05615334212779999,-0.08748709410429001,0.025077328085899353
1790964447383183600,8.44618359375,-0.05232611298561096,-0.09278172254562378,0.03740749508142471
1790964447393195500,8.456195556640624,-0.04419122263789177,-0.08544871211051941,0.04146562144160271
1790964447403207700,8.466207763671875,-0.035674165934324265,-0.07955619692802429,0.05500166863203049
1790964447413220600,8.476220703125,-0.031206179410219193,-0.0659375935792923,0.07322381436824799
1790964447423232800,8.486232666015624,-0.013605614192783833,-0.06617274880409241,0.11690311878919601
1790964447433245700,8.49624560546875,-0.018881870433688164,-0.10184712707996368,0.16948696970939636
1790964447443257900,8.5062578125,-0.034889332950115204,-0.1051478460431099,0.16841717064380646
1790964447453269800,8.516269775390626,-0.0468948632478714,-0.10674281418323517,0.11115708202123642
1790964447463283000,8.526282958984375,-0.05394797772169113,-0.06999332457780838,0.045909103006124496
1790964447473294800,8.536294921875,-0.04280717670917511,-0.0273212231695652,0.041751910001039505
1790964447483307800,8.546307861328126,-0.03859538584947586,-0.0017231856472790241,0.06772439181804657
1790964447493319700,8.556319580078124,-0.04761071875691414,-0.050334397703409195,0.0732850655913353
1790964447503331600,8.56633154296875,-0.06282082945108414,-0.05824558436870575,0.006738800555467606
1790964447513344800,8.5763447265625,-0.04943392053246498,-0.045405153185129166,-0.04096400737762451
1790964447523356700,8.586356689453124,-0.034718625247478485,-0.05291047319769859,-0.016929510980844498
1790964447533369900,8.596369873046875,-0.039647068828344345,-0.07329350709915161,0.0166992899030447
1790964447543381800,8.6063818359375,-0.04641309753060341,-0.07075098901987076,0.00641655782237649
1790964447553394700,8.616394775390624,-0.033823803067207336,-0.06678581237792969,-0.017880791798233986
1790964447563406600,8.626406494140625,-0.014479131437838078,-0.05758645385503769,-0.025560548529028893
1790964447573418500,8.63641845703125,0.0027469934429973364,-0.054663367569446564,-0.002181191463023424
1790964447583431700,8.646431640625,0.0049390411004424095,-0.04242507740855217,0.018118487671017647
1790964447593443600,8.656443603515624,0.009867487475275993,-0.04116007685661316,0.01145445927977562
1790964447603456800,8.666456787109375,0.013884066604077816,-0.034563157707452774,-0.01122688315808773
1790964447613468700,8.67646875,0.010978025384247303,-0.028114313259720802,-0.019577225670218468
1790964447623480800,8.686480712890624,-0.005461667664349079,-0.02135707437992096,-0.0022368510253727436
1790964447633493800,8.69649365234375,-0.012553399428725243,-0.02172139473259449,0.01580100506544113
1790964447643506000,8.706505859375,-0.0037508534733206034,-0.023993870243430138,0.005151289980858564
1790964447653518600,8.7165185546875,-0.004188677296042442,-0.020118437707424164,-0.02415493316948414
1790964447663530800,8.72653076171875,-0.007173547521233559,-0.01762678474187851,-0.031784359365701675
1790964447673542700,8.736542724609375,0.0019999768119305372,-0.017832646146416664,-0.014075400307774544
1790964447683555800,8.746555908203124,0.006923362612724304,-0.01543100830167532,0.0051068151369690895
1790964447693567700,8.756567626953125,-0.0005028620362281799,-0.013861874118447304,0.0024788076989352703
1790964447703580700,8.76658056640625,-0.0042613809928298,-0.01013424713164568,-0.009257476776838303
1790964447713592800,8.7765927734375,-0.0069682179018855095,-0.013067186810076237,-0.016532965004444122
1790964447723605800,8.786605712890625,-0.0072518447414040565,-0.015926621854305267,-0.01579180732369423
1790964447733617700,8.79661767578125,-0.006716549396514893,-0.013703947886824608,-0.018901847302913666
1790964447743629600,8.806629638671875,-0.001315126195549965,-0.007049773819744587,-0.02945728786289692
1790964447753642800,8.816642822265624,0.0047049494460225105,-0.0036843372508883476,-0.025675596669316292
1790964447763654700,8.826654541015625,0.008540433831512928,-0.002236909233033657,-0.008447077125310898
1790964447773667800,8.836667724609375,0.015334424562752247,0.0028843495529145002,0.005891382694244385
1790964447783679700,8.8466796875,0.0206769909709692,0.008350487798452377,-0.0028824019245803356
1790964447793691600,8.856691650390625,0.02483019046485424,0.01182884257286787,-0.014799781143665314
1790964447803704800,8.866704833984375,0.031165584921836853,0.01595567725598812,-0.02158444933593273
1790964447813716700,8.876716796875,0.030459048226475716,0.02039330266416073,-0.021918144077062607
1790964447823729700,8.886729736328125,0.031121907755732536,0.024960624054074287,-0.01363012008368969
1790964447833741600,8.896741455078125,0.028179382905364037,0.02875695936381817,-0.014249039813876152
1790964447843754800,8.906754638671876,0.029379669576883316,0.032569803297519684,-0.013706553727388382
1790964447853766700,8.9167666015625,0.029862500727176666,0.037632472813129425,-0.016188619658350945
1790964447863778800,8.92677880859375,0.03445938229560852,0.04138673096895218,-0.012684430927038193
1790964447873791700,8.936791748046875,0.03837023302912712,0.04187782108783722,-0.007995137944817543
1790964447883804000,8.946803955078124,0.04462093859910965,0.045039258897304535,-0.0075852773152291775
1790964447893816800,8.95681689453125,0.04568646848201752,0.044068802148103714,-0.004559927154332399
1790964447903828700,8.966828857421875,0.04714534804224968,0.041015755385160446,-0.009547227993607521
1790964447913841000,8.9768408203125,0.04740713909268379,0.03659969940781593,-0.01947256363928318
1790964447923853600,8.986853515625,0.043457403779029846,0.03146139904856682,-0.02806578390300274
1790964447933865700,8.99686572265625,0.04123739153146744,0.024890847504138947,-0.03926437720656395
1790964447943878700,9.006878662109376,0.041596654802560806,0.016804160550236702,-0.05171652138233185
1790964447953890800,9.016890869140624,0.04029995948076248,0.015802012756466866,-0.06320752948522568
1790964447963902700,9.02690283203125,0.039062388241291046,0.012269329279661179,-0.06701531261205673
1790964447973916000,9.036916015625,0.0491911917924881,0.007657533511519432,-0.054342929273843765
1790964447983927800,9.046927734375,0.09257035702466965,0.00020680727902799845,-0.014326270669698715
1790964447993940700,9.056940673828125,0.13565205037593842,-0.021217525005340576,0.0019088913686573505
1790964448003952600,9.06695263671875,0.15552856028079987,-0.03142355754971504,0.02607521414756775
1790964448013965600,9.076965576171874,0.18303155899047852,-0.040706805884838104,0.035070039331912994
1790964448023977700,9.086977783203125,0.1946922093629837,-0.03509925305843353,-0.013671932741999626
1790964448033989600,9.09698974609375,0.19062049686908722,-0.019950924441218376,-0.10328890383243561
1790964448044002800,9.1070029296875,0.2071845531463623,-0.001341021852567792,-0.15811167657375336
1790964448054014700,9.1170146484375,0.27546772360801697,-0.0027208055835217237,-0.11190449446439743
1790964448064028000,9.12702783203125,0.347379207611084,-0.012658657506108284,-0.012906540185213089
1790964448074039800,9.137039794921876,0.417423278093338,-0.017301347106695175,0.08945018798112869
1790964448084051700,9.1470517578125,0.48587051033973694,-0.027107104659080505,0.18138304352760315
1790964448094064600,9.157064697265625,0.5500342845916748,-0.023875359445810318,0.23974089324474335
1790964448104076500,9.16707666015625,0.5941178798675537,-0.018931999802589417,0.21693891286849976
1790964448114089700,9.17708984375,0.5967775583267212,0.013381198979914188,0.09930867701768875
1790964448124101600,9.1871015625,0.5351312756538391,0.07449887692928314,-0.03829631954431534
1790964448134113800,9.19711376953125,0.4726332724094391,0.075433649122715,-0.08757811784744263
1790964448144126700,9.207126708984376,0.46737536787986755,0.04902654141187668,-0.04973858967423439
1790964448154139000,9.217138916015625,0.5211408734321594,0.06653842329978943,0.003430888056755066
1790964448164151600,9.227151611328125,0.5601391196250916,0.09004854410886765,0.02951069176197052
1790964448174163700,9.237163818359376,0.5124675035476685,0.1259641945362091,-0.017500758171081543
1790964448184176600,9.2471767578125,0.3681691586971283,0.15180379152297974,-0.16606493294239044
1790964448194188800,9.257188720703125,0.22806639969348907,0.17137722671031952,-0.3523847162723541
1790964448204200700,9.26720068359375,0.15935339033603668,0.183538019657135,-0.45146629214286804
1790964448214213600,9.277213623046874,0.17408199608325958,0.1899586319923401,-0.4565982222557068
1790964448224225800,9.287225830078125,0.24040935933589935,0.17780129611492157,-0.3625201880931854
1790964448234238700,9.29723876953125,0.3596539795398712,0.18278540670871735,-0.2738795280456543
1790964448244251000,9.3072509765625,0.4678747355937958,0.1900063008069992,-0.22943724691867828
1790964448254262800,9.3172626953125,0.4920271933078766,0.19377067685127258,-0.2527366876602173
1790964448264275700,9.327275634765625,0.4588386118412018,0.13557422161102295,-0.27356475591659546
1790964448274287600,9.33728759765625,0.42569291591644287,0.06655227392911911,-0.21117675304412842
1790964448284300800,9.34730078125,0.4071671664714813,0.04430209472775459,-0.12130571901798248
1790964448294312700,9.357312744140625,0.37695202231407166,0.05741656571626663,-0.09684298932552338
1790964448304326000,9.367325927734376,0.28934597969055176,0.1009315550327301,-0.17584539949893951
1790964448314337800,9.377337890625,0.12967245280742645,0.13029024004936218,-0.32532355189323425
1790964448324349700,9.387349609375,-0.00628325343132019,0.14194636046886444,-0.40106385946273804
1790964448334362600,9.397362548828125,-0.04718274995684624,0.14514322578907013,-0.3652592599391937
1790964448344374800,9.407374755859376,-0.042537663131952286,0.13668902218341827,-0.24156981706619263
1790964448354387700,9.4173876953125,-0.023093393072485924,0.13135524094104767,-0.15634013712406158
1790964448364399600,9.427399658203125,-0.02805992215871811,0.1293751746416092,-0.14491917192935944
1790964448374411800,9.437411865234376,-0.055401530116796494,0.11767830699682236,-0.14439105987548828
1790964448384424700,9.4474248046875,-0.05353279039263725,0.09672881662845612,-0.09425492584705353
1790964448394436900,9.457436767578125,-0.03035387396812439,0.06806343793869019,-0.00897944811731577
1790964448404449800,9.46744970703125,-0.011740509420633316,0.05718309059739113,0.04994272440671921
1790964448414461700,9.477461669921874,-0.004579802509397268,0.04674350097775459,0.06522127985954285
1790964448424474600,9.487474609375,-0.005254647228866816,0.036053307354450226,0.07201659679412842
1790964448434486500,9.497486572265625,0.004331666976213455,0.01993798278272152,0.07564994692802429
1790964448444498700,9.507498779296874,-0.00043485849164426327,0.014942692592740059,0.05141199007630348
1790964448454511600,9.51751171875,-0.02229515090584755,0.016422610729932785,-0.013169133104383945
1790964448464523800,9.527523681640625,-0.043929073959589005,0.017203450202941895,-0.11539936810731888
1790964448474536700,9.53753662109375,-0.06865119189023972,0.007189165335148573,-0.21363325417041779
1790964448484548900,9.547548828125,-0.08933863043785095,-0.005605991929769516,-0.2444859743118286
1790964448494560800,9.557560791015625,-0.10901352763175964,-0.021223034709692,-0.19943593442440033
1790964448504573700,9.56757373046875,-0.13671839237213135,-0.0298311710357666,-0.11323155462741852
1790964448514585900,9.5775859375,-0.15729770064353943,-0.029140345752239227,-0.010769358836114407
1790964448524598800,9.587598876953125,-0.1522376984357834,-0.04789299517869949,0.07132524251937866
1790964448534610700,9.597610595703125,-0.154077410697937,-0.0677199587225914,0.1515979915857315
1790964448544623600,9.60762353515625,-0.1803084760904312,-0.08631441742181778,0.24521049857139587
1790964448554635800,9.6176357421875,-0.21225735545158386,-0.09563015401363373,0.3271426558494568
1790964448564647700,9.627647705078125,-0.2523462176322937,-0.10760638862848282,0.38244929909706116
1790964448574660900,9.637660888671874,-0.2233603447675705,-0.11585473269224167,0.390114963054657
1790964448584672800,9.6476728515625,-0.05664566531777382,-0.11003386229276657,0.28528761863708496
1790964448594685700,9.657685791015625,0.02193143218755722,-0.07664581388235092,0.09164409339427948
1790964448604697600,9.667697509765626,-0.04160306975245476,-0.055418021976947784,-0.06798204779624939
1790964448614709500,9.67770947265625,-0.07160144299268723,-0.06002502515912056,-0.09942732006311417
1790964448624722700,9.68772265625,-0.04937576875090599,-0.08136440068483353,-0.03170207142829895
1790964448634734600,9.697734619140626,-0.0714576318860054,-0.0818384438753128,0.04223180562257767
1790964448644747800,9.707747802734374,-0.09757845103740692,-0.08952725678682327,0.06013810262084007
1790964448654759700,9.717759765625,-0.07246644049882889,-0.07712571322917938,0.02172306925058365
1790964448664772900,9.72777294921875,-0.06685222685337067,-0.08529256284236908,-0.0017638793215155602
1790964448674784800,9.73778466796875,-0.07551176100969315,-0.07968580722808838,-0.001300223171710968
1790964448684797000,9.747796875,-0.06423407793045044,-0.08904548734426498,0.02202533930540085
1790964448694809600,9.7578095703125,-0.07540017366409302,-0.09140478074550629,0.022048242390155792
1790964448704821800,9.76782177734375,-0.08593537658452988,-0.07886955142021179,0.0017834510654211044
1790964448714834700,9.777834716796875,-0.07389682531356812,-0.08305683732032776,0.005051415879279375
1790964448724846800,9.787846923828125,-0.08360137790441513,-0.084355928003788,0.01950465701520443
1790964448734858800,9.797858642578126,-0.07822073251008987,-0.09093047678470612,0.021121196448802948
1790964448744871700,9.80787158203125,-0.07622362673282623,-0.09943661093711853,0.014470484107732773
1790964448754883800,9.8178837890625,-0.07641004770994186,-0.109096959233284,0.012482434511184692
1790964448764896500,9.827896484375,-0.07350879907608032,-0.11608429998159409,0.018875617533922195
1790964448774908700,9.83790869140625,-0.07551895081996918,-0.11955706030130386,0.021214140579104424
1790964448784921600,9.847921630859375,-0.07699967175722122,-0.12207268178462982,0.01776135340332985
1790964448794933800,9.857933837890625,-0.0787525624036789,-0.12439389526844025,0.014567423611879349
1790964448804945700,9.867945556640626,-0.08049187064170837,-0.12923499941825867,0.01806361973285675
1790964448814958800,9.877958740234375,-0.07608221471309662,-0.13024140894412994,0.01699063368141651
1790964448824970800,9.887970703125,-0.07428830862045288,-0.13124115765094757,0.015167166478931904
1790964448834984000,9.89798388671875,-0.07154365628957748,-0.1336563676595688,0.016772519797086716
1790964448844995800,9.907995849609375,-0.06714197993278503,-0.13688784837722778,0.019113704562187195
1790964448855007700,9.9180078125,-0.06605647504329681,-0.1403190642595291,0.01800023764371872
1790964448865020700,9.928020751953126,-0.06096717715263367,-0.13977737724781036,0.013679524883627892
1790964448875032600,9.938032470703124,-0.06182258948683739,-0.13986925780773163,0.015679026022553444
1790964448885045800,9.948045654296875,-0.05895036831498146,-0.1387142539024353,0.018027402460575104
1790964448895057700,9.9580576171875,-0.055483996868133545,-0.13489101827144623,0.01716293953359127
1790964448905070800,9.96807080078125,-0.04918348789215088,-0.13257592916488647,0.014579406939446926
1790964448915082800,9.978082763671875,-0.044218823313713074,-0.12995457649230957,0.011739412322640419
1790964448925095000,9.988094970703125,-0.03987734019756317,-0.12558433413505554,0.011948203667998314
1790964448935107600,9.998107666015626,-0.0377606600522995,-0.11985666304826736,0.01312665268778801
1790964448945119700,10.00811962890625,-0.03455527871847153,-0.11561878025531769,0.01204887218773365
1790964448955132700,10.018132568359375,-0.030741363763809204,-0.10900454968214035,0.011862982995808125
1790964448965144600,10.02814453125,-0.025017166510224342,-0.10289925336837769,0.008640025742352009
1790964448975156700,10.03815673828125,-0.019929997622966766,-0.09818439185619354,0.00840193871408701
1790964448985169700,10.048169677734375,-0.014216983690857887,-0.09209108352661133,0.007835484109818935
1790964448995181800,10.058181884765625,-0.007106077391654253,-0.08308161050081253,0.00577552942559123
1790964449005194800,10.06819482421875,-0.004515620414167643,-0.07222549617290497,0.0037086501251906157
1790964449015207000,10.07820703125,0.0018360188696533442,-0.0591973140835762,0.0041611213237047195
1790964449025219600,10.088219482421875,0.0071828472428023815,-0.04806157201528549,0.0017163390293717384
1790964449035231700,10.098231689453126,0.01374700665473938,-0.03398383408784866,0.0003434796817600727
1790964449045243600,10.10824365234375,0.01815081015229225,-0.022452350705862045,-0.001835252158343792
1790964449055256800,10.1182568359375,0.026472922414541245,-0.009763719514012337,-0.003441404551267624
1790964449065268700,10.128268798828126,0.03162054717540741,0.00479445094242692,-0.0051607415080070496
1790964449075281700,10.13828173828125,0.03603420406579971,0.018717722967267036,-0.00573412049561739
1790964449085293800,10.1482939453125,0.041219111531972885,0.031028451398015022,-0.00811711698770523
1790964449095306800,10.158306640625,0.04520373046398163,0.04478101804852486,-0.012316389940679073
1790964449105319000,10.16831884765625,0.048867709934711456,0.05725206807255745,-0.012765130959451199
1790964449115330800,10.178330810546875,0.0542619414627552,0.07258841395378113,-0.013429590500891209
1790964449125343700,10.18834375,0.05783563852310181,0.08515746891498566,-0.016254406422376633
1790964449135355600,10.198355712890624,0.06001836434006691,0.09621970355510712,-0.01869838684797287
1790964449145368800,10.208368896484375,0.06356889009475708,0.10333807021379471,-0.021279525011777878
1790964449155380700,10.218380615234375,0.06473802030086517,0.11226685345172882,-0.018720757216215134
1790964449165392600,10.228392578125,0.06680623441934586,0.12068004161119461,-0.0171995609998703
1790964449175405800,10.23840576171875,0.06623178720474243,0.12320897728204727,-0.015154252760112286
1790964449185417700,10.248417724609375,0.0663369819521904,0.12430327385663986,-0.017060544341802597
1790964449195430700,10.2584306640625,0.0661923736333847,0.12689319252967834,-0.013570471666753292
1790964449205442600,10.268442626953124,0.06700330972671509,0.1264982372522354,-0.011076687835156918
1790964449215455700,10.278455810546875,0.06666002422571182,0.12781943380832672,-0.010519287548959255
1790964449225467600,10.288467529296875,0.06479953974485397,0.13180112838745117,-0.013970478437840939
1790964449235479800,10.298479736328124,0.06412097066640854,0.13269728422164917,-0.015417906455695629
1790964449245492700,10.30849267578125,0.06339099258184433,0.13575272262096405,-0.01416116114705801
1790964449255504600,10.318504638671875,0.06045006215572357,0.13418146967887878,-0.013212808407843113
1790964449265517800,10.328517822265624,0.05821114405989647,0.13403552770614624,-0.01598169654607773
1790964449275529700,10.33852978515625,0.056930962949991226,0.14023855328559875,-0.023722175508737564
1790964449285542700,10.348542724609375,0.05544598400592804,0.13387839496135712,-0.007420167326927185
1790964449295554600,10.358554443359376,0.04949648305773735,0.1527109444141388,-0.024090223014354706
1790964449305566700,10.368566650390624,0.05480389669537544,0.1455020308494568,-0.018413696438074112
1790964449315579600,10.37857958984375,0.06411191076040268,0.16629944741725922,-0.010618624277412891
1790964449325591800,10.388591796875,0.04642106220126152,0.156790629029274,-0.023301661014556885
1790964449335604700,10.398604736328124,0.05027545616030693,0.16965077817440033,-0.020666196942329407
1790964449345617000,10.408616943359375,0.042416200041770935,0.1357591152191162,-0.010091851465404034
1790964449355628800,10.41862890625,0.03416785970330238,0.1427464485168457,-0.016103137284517288
1790964449365641700,10.428641845703124,0.043500375002622604,0.13452181220054626,-0.018666163086891174
1790964449375653600,10.438653564453125,0.03618680313229561,0.1255807876586914,-0.005517604760825634
1790964449385667300,10.448667236328125,0.016471421346068382,0.11359336972236633,0.018978416919708252
1790964449395679200,10.45867919921875,0.016974400728940964,0.12389854341745377,-0.04087035730481148
1790964449405692400,10.4686923828125,0.01694297417998314,0.10269232839345932,-0.009764367714524269
1790964449415704300,10.478704345703125,-0.00567631796002388,0.11087115854024887,0.004328813869506121
1790964449425716200,10.48871630859375,0.0002745152451097965,0.11115212738513947,0.006958951707929373
1790964449435729200,10.498729248046875,0.00026599306147545576,0.12684480845928192,-0.01836744323372841
1790964449445741000,10.508740966796875,-0.030914563685655594,0.09916257113218307,0.010757951065897942
1790964449455754200,10.518754150390626,-0.025876659899950027,0.10236822068691254,-0.015687771141529083
1790964449465766100,10.52876611328125,-0.021035034209489822,0.06856685131788254,-0.02192808873951435
1790964449475779300,10.538779296875,-0.03879006206989288,0.06258698552846909,0.004753587767481804
1790964449485791200,10.548791259765625,-0.018261084333062172,0.05353303626179695,0.026297230273485184
1790964449495803100,10.55880322265625,-0.03864811733365059,0.05724495276808739,-0.007784840185195208
1790964449505816300,10.56881640625,-0.026770683005452156,0.062041305005550385,-0.013763636350631714
1790964449515828200,10.578828125,-0.011844731867313385,0.06059201434254646,0.017573779448866844
1790964449525841200,10.588841064453124,-0.013973130844533443,0.04984349384903908,0.029014719650149345
1790964449535853000,10.59885302734375,-0.027085470035672188,0.025169840082526207,-0.007889769971370697
1790964449545865200,10.608865234375,-0.053849972784519196,-0.01024753786623478,-0.028574006631970406
1790964449555878100,10.618878173828126,-0.05984314903616905,-0.038616862148046494,0.009860465303063393
1790964449565890300,10.628890380859374,-0.05694643035531044,-0.06643837690353394,0.060481030493974686
1790964449575903200,10.6389033203125,-0.05297485738992691,-0.08085858821868896,0.03919465094804764
1790964449585915400,10.648915283203126,-0.0470794178545475,-0.09770920872688293,-0.024107353761792183
1790964449595928300,10.65892822265625,-0.04633532837033272,-0.11377552896738052,-0.027841107919812202
1790964449605940200,10.668940185546875,-0.0659918561577797,-0.138124018907547,0.0420258566737175
1790964449615952100,10.6789521484375,-0.060648221522569656,-0.12999151647090912,0.07061649113893509
1790964449625965000,10.688965087890624,-0.045726798474788666,-0.12989458441734314,0.012083938345313072
1790964449635977200,10.698977294921875,-0.03341633453965187,-0.12364733219146729,-0.037489473819732666
1790964449645990100,10.708990234375,-0.031346794217824936,-0.15155565738677979,0.008905722759664059
1790964449656002300,10.719002197265626,-0.049502093344926834,-0.1647510975599289,0.04310496896505356
1790964449666015200,10.72901513671875,-0.04506553336977959,-0.1684321165084839,0.02554408833384514
1790964449676027400,10.73902734375,-0.03866222873330116,-0.1641601324081421,0.002934649121016264
1790964449686039300,10.749039306640626,-0.033576127141714096,-0.16092465817928314,0.007357360795140266
1790964449696052200,10.75905224609375,-0.022570611909031868,-0.16728802025318146,0.025826649740338326
1790964449706064100,10.769064208984375,-0.011596525087952614,-0.16916395723819733,0.022444700822234154
1790964449716077300,10.779077392578126,0.005016007460653782,-0.16324560344219208,-0.0007754005491733551
1790964449726089200,10.789089111328124,0.017110221087932587,-0.1523681879043579,-0.009973958134651184
1790964449736102400,10.799102294921875,0.03078555315732956,-0.13755063712596893,0.01261976733803749
1790964449746114300,10.8091142578125,0.046638019382953644,-0.1340395212173462,0.02098795212805271
1790964449756126200,10.819126220703126,0.05318833142518997,-0.13152629137039185,-0.004407419357448816
1790964449766139400,10.829139404296875,0.06083426624536514,-0.13067008554935455,-0.016856631264090538
1790964449776151300,10.8391513671875,0.06840350478887558,-0.1288687288761139,0.003514951793476939
1790964449786164200,10.849164306640626,0.07933737337589264,-0.12125501781702042,0.015375606715679169
1790964449796176100,10.859176025390624,0.09436053782701492,-0.1173846423625946,-0.0075502158142626286
1790964449806188000,10.86918798828125,0.11103005707263947,-0.1141667440533638,-0.02355794422328472
1790964449816201200,10.879201171875,0.1277749389410019,-0.12296130508184433,-0.008230654522776604
1790964449826213000,10.889213134765624,0.14377707242965698,-0.12452804297208786,0.008334474638104439
1790964449836226300,10.899226318359375,0.15699169039726257,-0.11559286713600159,-0.004448432009667158
1790964449846238200,10.90923828125,0.16866272687911987,-0.10171247273683548,-0.026901809498667717
1790964449856251100,10.919251220703124,0.1729477494955063,-0.1001177728176117,-0.03409980237483978
1790964449866263000,10.929262939453125,0.18125414848327637,-0.10397323220968246,-0.00791160762310028
1790964449876275200,10.939275146484375,0.18028981983661652,-0.12514828145503998,0.007690255530178547
1790964449886288100,10.9492880859375,0.2146504521369934,-0.11308550089597702,-0.03781411424279213
1790964449896300300,10.95930029296875,0.22052724659442902,-0.10346030443906784,-0.03251948207616806
1790964449906313200,10.969313232421875,0.23505373299121857,-0.08610794693231583,-0.03379513695836067
1790964449916325400,10.979325439453126,0.27451351284980774,-0.09861867874860764,-0.020795714110136032
1790964449926338300,10.98933837890625,0.24145649373531342,-0.10819806903600693,-0.00776673061773181
1790964449936350200,10.99935009765625,0.2796427607536316,-0.1024315282702446,-0.02270386926829815
1790964449946362400,11.0093623046875,0.2919257879257202,-0.10656289011240005,-0.03913157805800438
1790964449956375000,11.019375,0.26508912444114685,-0.0989915207028389,-0.022847412154078484
1790964449966387200,11.02938720703125,0.26336100697517395,-0.09826234728097916,0.017632901668548584
1790964449976400100,11.039400146484375,0.23640501499176025,-0.08996526896953583,-0.020814621821045876
1790964449986412300,11.049412353515624,0.2391459345817566,-0.07929238677024841,-0.047535981982946396
1790964449996425200,11.05942529296875,0.2557464838027954,-0.07426939904689789,-0.009543059393763542
1790964450006437400,11.069437255859375,0.27114248275756836,-0.06683385372161865,-0.009319353848695755
1790964450016449300,11.07944921875,0.29562732577323914,-0.06565700471401215,-0.03510887548327446
1790964450026462200,11.089462158203125,0.2985658645629883,-0.057272836565971375,-0.039097223430871964
1790964450036474000,11.09947412109375,0.3185640573501587,-0.04471816495060921,-0.02433798462152481
1790964450046487300,11.1094873046875,0.3253663182258606,-0.03553584963083267,-0.008114539086818695
1790964450056499200,11.119499267578124,0.31403830647468567,-0.023103682324290276,-0.020704099908471107
1790964450066512100,11.12951220703125,0.3186378479003906,-0.02163601480424404,-0.03895554319024086
1790964450076524300,11.139524169921875,0.2965482473373413,-0.021007774397730827,-0.050655875355005264
1790964450086536200,11.1495361328125,0.28562477231025696,-0.03461972251534462,-0.027538036927580833
1790964450096549400,11.15954931640625,0.2812308073043823,-0.03774068132042885,-0.022559525445103645
1790964450106561300,11.169561279296875,0.28454166650772095,-0.02601052261888981,-0.02865629829466343
1790964450116574200,11.17957421875,0.2931433916091919,0.000406437466153875,-0.033214036375284195
1790964450126586000,11.189586181640625,0.3102443516254425,0.0389823243021965,-0.03548384830355644
1790964450136598000,11.199597900390625,0.31992974877357483,0.08566433936357498,-0.050425246357917786
1790964450146611200,11.209611083984376,0.32540467381477356,0.12491720914840698,-0.062327444553375244
1790964450156623000,11.219623046875,0.3341238498687744,0.15755663812160492,-0.054865799844264984
1790964450166636300,11.22963623046875,0.3393588364124298,0.1733260154724121,-0.03161880373954773
1790964450176648200,11.239648193359375,0.3379036784172058,0.16879545152187347,-0.039720404893159866
1790964450186661000,11.2496611328125,0.32484325766563416,0.15836358070373535,-0.05960942059755325
1790964450196673300,11.25967333984375,0.3027361035346985,0.1514313668012619,-0.05629485100507736
1790964450206685200,11.269685302734375,0.2845855951309204,0.1629926860332489,-0.03077804110944271
1790964450216698000,11.279697998046874,0.2742972671985626,0.18988502025604248,-0.03162705898284912
1790964450226710300,11.289710205078125,0.27397316694259644,0.2189028263092041,-0.059497036039829254
1790964450236723200,11.29972314453125,0.2751966118812561,0.2279120236635208,-0.07249405980110168
1790964450246735400,11.3097353515625,0.25909435749053955,0.21946369111537933,-0.05795826017856598
1790964450256748300,11.319748291015625,0.2409939020872116,0.21089309453964233,-0.03299485892057419
1790964450266760200,11.32976025390625,0.22186841070652008,0.2000039666891098,-0.028322605416178703
1790964450276772400,11.3397724609375,0.20806391537189484,0.1833682656288147,-0.035323526710271835
1790964450286785000,11.349784912109374,0.19147536158561707,0.1625460684299469,-0.043260809034109116
1790964450296797200,11.359797119140625,0.1780351847410202,0.14055556058883667,-0.033400990068912506
1790964450306810000,11.36981005859375,0.1698739230632782,0.12305805087089539,-0.022361652925610542
1790964450316822300,11.379822265625,0.15979252755641937,0.11323178559541702,-0.023041557520627975
1790964450326835200,11.389835205078125,0.15724654495716095,0.10525375604629517,-0.02896309457719326
1790964450336847400,11.399847412109375,0.15240252017974854,0.09075284749269485,-0.028518347069621086
1790964450346859300,11.409859375,0.13529038429260254,0.06007402762770653,-0.019853487610816956
1790964450356872400,11.41987255859375,0.10951019078493118,0.035263486206531525,-0.016774339601397514
1790964450366884400,11.42988427734375,0.09714913368225098,0.022813474759459496,-0.02132701501250267
1790964450376897300,11.439897216796876,0.08790077269077301,0.01839316077530384,-0.027669863775372505
1790964450386909200,11.4499091796875,0.08849598467350006,0.0176546648144722,-0.021221818402409554
1790964450396922400,11.45992236328125,0.09005558490753174,0.008409694768488407,-0.012517418712377548
1790964450406934300,11.469934326171876,0.0831819623708725,-0.004552176222205162,-0.011634314432740211
1790964450416946400,11.479946533203124,0.0875474214553833,-0.013827167451381683,-0.01860780082643032
1790964450426959400,11.48995947265625,0.0896473228931427,-0.018727649003267288,-0.015761680901050568
1790964450436971500,11.499971435546875,0.09020844846963882,-0.0165806096047163,-0.018251735717058182
1790964450446984200,11.509984130859374,0.09827756136655807,-0.0029726556967943907,-0.01823788695037365
1790964450456996000,11.51999609375,0.09488389641046524,0.011418533511459827,-0.01956467516720295
1790964450467009300,11.53000927734375,0.0939488634467125,0.03717449679970741,-0.023188970983028412
1790964450477021200,11.540021240234376,0.10170292109251022,0.06536298990249634,-0.0266132615506649
1790964450487033300,11.550033447265625,0.10678396373987198,0.08963104337453842,-0.02600739523768425
1790964450497046300,11.56004638671875,0.12597417831420898,0.10910914093255997,-0.03356704115867615
1790964450507058400,11.570058349609376,0.14445917308330536,0.11959134042263031,-0.029172029346227646
1790964450517071400,11.5800712890625,0.15132826566696167,0.1309257596731186,-0.04104280099272728
1790964450527083500,11.59008349609375,0.1689264327287674,0.14594411849975586,-0.052028343081474304
1790964450537096200,11.60009619140625,0.16254763305187225,0.1641305834054947,-0.05014175921678543
1790964450547108400,11.6101083984375,0.17487487196922302,0.19307461380958557,-0.03173159062862396
1790964450557120300,11.620120361328125,0.18885965645313263,0.1993037462234497,0.018025312572717667
1790964450567133400,11.630133544921875,0.17074723541736603,0.221321702003479,-0.029577095061540604
1790964450577145300,11.640145263671876,0.1925944834947586,0.22835324704647064,-0.08559136092662811
1790964450587158300,11.650158203125,0.19503100216388702,0.20695795118808746,-0.03315824642777443
1790964450597170400,11.66017041015625,0.16726727783679962,0.19097284972667694,-0.01957586035132408
1790964450607183000,11.67018310546875,0.1763465255498886,0.1978861540555954,-0.05409788340330124
1790964450617195300,11.6801953125,0.1766786277294159,0.20427986979484558,-0.036567360162734985
1790964450627207200,11.690207275390625,0.1707749366760254,0.21375539898872375,-0.02322785183787346
1790964450637220400,11.700220458984376,0.1854228526353836,0.209757462143898,-0.002001659944653511
1790964450647232300,11.710232177734374,0.17098931968212128,0.18227070569992065,-0.007644898258149624
1790964450657245400,11.720245361328125,0.15196901559829712,0.15635734796524048,-0.04127316549420357
1790964450667257300,11.73025732421875,0.13189597427845,0.11850104480981827,-0.03303813934326172
1790964450677270500,11.7402705078125,0.1024739071726799,0.1003236323595047,-0.01054374873638153
1790964450687282400,11.750282470703125,0.09493076801300049,0.08028281480073929,0.028403116390109062
1790964450697294300,11.76029443359375,0.085945263504982,0.059764228761196136,0.02713412046432495
1790964450707307300,11.770307373046874,0.07548516243696213,0.039355359971523285,-0.019277319312095642
1790964450717319200,11.780319091796875,0.0667009949684143,0.018121711909770966,-0.04756994545459747
1790964450727332400,11.790332275390625,0.053739387542009354,-0.00599827291443944,-0.007791638374328613
1790964450737344300,11.80034423828125,0.029377060011029243,-0.01694200001657009,0.053747087717056274
1790964450747357400,11.810357421875,0.01804504357278347,-0.02470378205180168,0.05047513172030449
1790964450757369300,11.820369384765625,0.011444663628935814,-0.03975490480661392,0.030407944694161415
1790964450767381200,11.83038134765625,-0.00783395953476429,-0.06630049645900726,0.009125825949013233
1790964450777394200,11.840394287109374,-0.018675953149795532,-0.09903553873300552,-0.023462211713194847
1790964450787406000,11.850406005859375,-0.021869083866477013,-0.11246772855520248,-0.04371155425906181
1790964450797419300,11.860419189453125,-0.026035599410533905,-0.12292436510324478,0.004700717516243458
1790964450807431200,11.87043115234375,-0.02215217798948288,-0.11713411659002304,0.019333988428115845
1790964450817443300,11.880443359375,-0.007882429286837578,-0.09858307242393494,-0.01745332032442093
1790964450827456300,11.890456298828125,-0.006751916836947203,-0.08850886672735214,-0.0009294715709984303
1790964450837468400,11.900468505859376,-0.013242572546005249,-0.08009088039398193,0.05611197650432587
1790964450847481300,11.9104814453125,-0.018571291118860245,-0.04039672762155533,0.01893850788474083
1790964450857493500,11.920493408203125,-0.008086159825325012,0.0015978615265339613,-0.036812637001276016
1790964450867506200,11.930506103515626,-0.0008303779177367687,0.029564514756202698,-0.03527199849486351
1790964450877518300,11.940518310546874,0.019147058948874474,0.04568995535373688,-0.01979956589639187
1790964450887530200,11.9505302734375,0.03399684280157089,0.04009838402271271,0.010384169407188892
1790964450897543200,11.960543212890625,0.03361654281616211,0.05809176340699196,-0.024782340973615646
1790964450907555300,11.970555419921874,0.0464567095041275,0.09177488833665848,-0.05651603266596794
1790964450917568300,11.980568359375,0.027021493762731552,0.12973719835281372,-0.06996287405490875
1790964450927580400,11.990580322265625,0.02910941280424595,0.17741043865680695,-0.09681445360183716
1790964450937593300,12.00059326171875,0.06541468948125839,0.19993412494659424,-0.08584196865558624
1790964450947605200,12.010605224609375,0.10974380373954773,0.2168920636177063,-0.04102921858429909
1790964450957618200,12.0206181640625,0.1517445147037506,0.24718205630779266,-0.02143714390695095
1790964450967630300,12.03063037109375,0.1717885285615921,0.2863515615463257,-0.0350823812186718
1790964450977642200,12.040642333984374,0.15757976472377777,0.3165169060230255,-0.033324163407087326
1790964450987655400,12.050655517578125,0.13085468113422394,0.33761608600616455,0.040949802845716476
1790964450997667300,12.060667236328126,0.11481206119060516,0.3027488887310028,0.1293100267648697
1790964451007680500,12.070680419921874,0.028960008174180984,0.2542993426322937,0.025428365916013718
1790964451017692400,12.0806923828125,-0.017230389639735222,0.21473224461078644,-0.10913902521133423
1790964451027705000,12.090705078125,-0.019831232726573944,0.10802203416824341,-0.05248001217842102
1790964451037717200,12.10071728515625,-0.07993185520172119,0.030566129833459854,0.04769692197442055
1790964451047729200,12.110729248046875,-0.09806132316589355,-0.031226130202412605,0.12127180397510529
1790964451057742300,12.120742431640625,-0.08502302318811417,-0.08585476130247116,0.08352203667163849
1790964451067754200,12.130754150390626,-0.060945380479097366,-0.11386668682098389,-0.026043880730867386
1790964451077767400,12.140767333984375,-0.01963469199836254,-0.1452653408050537,-0.040945861488580704
1790964451087779300,12.150779296875,0.014215417206287384,-0.17426876723766327,0.021369175985455513
1790964451097792500,12.16079248046875,0.01394909992814064,-0.1880788505077362,0.053271982818841934
1790964451107804400,12.170804443359375,-0.012910209596157074,-0.1700116991996765,-0.013613840565085411
1790964451117816300,12.18081640625,-0.03365810215473175,-0.13573549687862396,-0.060632217675447464
1790964451127829200,12.190829345703126,-0.04197914898395538,-0.09816548973321915,-0.02389257773756981
1790964451137841200,12.200841064453124,-0.025073666125535965,-0.06914395838975906,0.0016276957467198372
1790964451147854300,12.210854248046875,0.009294161573052406,-0.044042859226465225,-0.0034805135801434517
1790964451157866200,12.2208662109375,0.029761087149381638,-0.012442057952284813,-0.03052438050508499
1790964451167879400,12.23087939453125,0.057189248502254486,0.03385300189256668,-0.06786508858203888
1790964451177891300,12.240891357421875,0.09060393273830414,0.07726172357797623,-0.07733583450317383
1790964451187903500,12.250903564453125,0.1062270998954773,0.14133605360984802,-0.07469184696674347
1790964451197916200,12.260916259765626,0.08256704360246658,0.20451688766479492,-0.07116688787937164
1790964451207928300,12.27092822265625,0.04515841603279114,0.2675320506095886,-0.07962055504322052
1790964451217941200,12.280941162109375,0.023782823234796524,0.33484557271003723,-0.08465179800987244
1790964451227953200,12.290953125,0.021573198959231377,0.3723980188369751,-0.07971376180648804
1790964451237966300,12.30096630859375,0.018209094181656837,0.3794495463371277,-0.07127021253108978
1790964451247978200,12.310978271484375,0.0008119934936985373,0.34541353583335876,-0.037649668753147125
1790964451257990400,12.320990478515625,-0.029584527015686035,0.2895934283733368,0.022629383951425552
