time,seconds_elapsed,z,y,x
1790964438989688600,0.0526884765625,0.014280668459832668,-0.39641231298446655,-0.011084342375397682
1790964438999700500,0.062700439453125,0.011752530001103878,-0.5137178897857666,0.010273676365613937
1790964439009713700,0.072713623046875,0.015992015600204468,-0.7235233187675476,0.03743632137775421
1790964439019725600,0.0827255859375,0.048601359128952026,-0.8378885388374329,0.06732950359582901
1790964439029737700,0.09273779296875,0.06268654763698578,-0.9178164005279541,0.10564173758029938
1790964439039749600,0.10274951171875,0.10487315058708191,-1.1264433860778809,0.16860339045524597
1790964439049762600,0.112762451171875,0.11641635745763779,-1.2728948593139648,0.22318968176841736
1790964439059774700,0.122774658203125,0.04363855719566345,-1.236572265625,0.30019843578338623
1790964439069786600,0.13278662109375,0.037282925099134445,-0.992611825466156,0.41408345103263855
1790964439079799600,0.142799560546875,0.0787627249956131,-0.8671947717666626,0.6041972041130066
1790964439089811500,0.1528115234375,-0.012737100012600422,-0.8984929919242859,0.7504242062568665
1790964439099823600,0.16282373046875,-0.08513779938220978,-0.9189165234565735,0.8531657457351685
1790964439109835500,0.17283544921875,-0.10373678058385849,-0.9119696617126465,0.8868235945701599
1790964439119848400,0.182848388671875,-0.10321559756994247,-0.867613673210144,0.8440343141555786
1790964439129860600,0.192860595703125,-0.13397671282291412,-0.8171707391738892,0.6883502006530762
1790964439139872500,0.20287255859375,-0.15116634964942932,-0.738510012626648,0.43676668405532837
1790964439149885700,0.2128857421875,-0.12509293854236603,-0.6203644871711731,0.19515565037727356
1790964439159897600,0.222897705078125,-0.08049936592578888,-0.5030450224876404,0.020970528945326805
1790964439169909800,0.23290966796875,-0.029574137181043625,-0.30848434567451477,-0.098225899040699
1790964439179922700,0.242922607421875,-0.012438293546438217,-0.06485249847173691,-0.17645519971847534
1790964439189934600,0.2529345703125,-0.010391388088464737,0.15909644961357117,-0.20641230046749115
1790964439199946800,0.26294677734375,-0.015680426731705666,0.27620628476142883,-0.20259305834770203
1790964439209958700,0.272958740234375,-0.029952306300401688,0.24425581097602844,-0.16639643907546997
1790964439219971600,0.2829716796875,-0.04699334129691124,0.16618524491786957,-0.1079150140285492
1790964439229983500,0.2929833984375,-0.05766196548938751,0.06543946266174316,-0.03923022747039795
1790964439239995600,0.30299560546875,-0.07067816704511642,0.009199890308082104,0.02918105386197567
1790964439250008600,0.313008544921875,-0.09418828040361404,0.0512823611497879,0.11963158845901489
1790964439260020500,0.3230205078125,-0.12498880922794342,0.16056197881698608,0.18566812574863434
1790964439270032600,0.33303271484375,-0.13845081627368927,0.23566658794879913,0.19004370272159576
1790964439280044500,0.34304443359375,-0.13139131665229797,0.2940737009048462,0.15483830869197845
1790964439290057700,0.3530576171875,-0.10792140662670135,0.2420395314693451,0.14780117571353912
1790964439300069600,0.363069580078125,-0.10816987603902817,0.12645195424556732,0.16668325662612915
1790964439310081500,0.37308154296875,-0.11801345646381378,0.04692463204264641,0.1975191980600357
1790964439320094500,0.383094482421875,-0.11892825365066528,-0.0022596921771764755,0.24040062725543976
1790964439330106600,0.393106689453125,-0.08491915464401245,-0.06087959557771683,0.27654585242271423
1790964439340118500,0.403118408203125,-0.05239236727356911,-0.09109129756689072,0.2667994797229767
1790964439350131500,0.41313134765625,-0.03749943897128105,-0.07773686945438385,0.21746601164340973
1790964439360143600,0.4231435546875,-0.019393671303987503,-0.06025002524256706,0.17509084939956665
1790964439370155500,0.433155517578125,-0.023681094869971275,-0.06437446177005768,0.1283917874097824
1790964439380170000,0.443169921875,-0.032696958631277084,-0.07610542327165604,0.0698925331234932
1790964439390182700,0.4531826171875,-0.03368472680449486,-0.079779252409935,0.02744733728468418
1790964439400194800,0.46319482421875,-0.034383539110422134,-0.07585428655147552,0.011698201298713684
1790964439410206700,0.473206787109375,-0.03870372101664543,-0.04898431897163391,0.007113835774362087
1790964439420220000,0.483219970703125,-0.030275613069534302,0.0049284459091722965,0.009668339975178242
1790964439430231800,0.493231689453125,-0.015142734162509441,0.06866002082824707,0.0015374429058283567
1790964439440244000,0.503243896484375,-0.011542938649654388,0.136192187666893,-0.004322044085711241
1790964439450257000,0.5132568359375,-0.02117639221251011,0.17645971477031708,-0.01062121894210577
1790964439460268800,0.523268798828125,-0.030345655977725983,0.18733634054660797,0.001576857641339302
1790964439470281000,0.533281005859375,-0.04425028711557388,0.1973215937614441,0.028853485360741615
1790964439480292900,0.54329296875,-0.04785088077187538,0.19306665658950806,0.08438785374164581
1790964439490305800,0.553305908203125,-0.05437455698847771,0.18234051764011383,0.1416330337524414
1790964439500317700,0.563317626953125,-0.06384103000164032,0.18223798274993896,0.17185990512371063
1790964439510329900,0.573329833984375,-0.06828451156616211,0.22808855772018433,0.15545296669006348
1790964439520342800,0.5833427734375,-0.0603400394320488,0.32676640152931213,0.09422716498374939
1790964439530354700,0.593354736328125,-0.08416041731834412,0.5674940347671509,-0.00971467886120081
1790964439540366800,0.603366943359375,-0.07031544297933578,0.902955949306488,-0.15662182867527008
1790964439550379800,0.6133798828125,-0.07935580611228943,1.0993739366531372,-0.32801011204719543
1790964439560392000,0.623391845703125,-0.22150255739688873,1.2360575199127197,-0.5461104512214661
1790964439571030000,0.634030029296875,-0.4122735857963562,1.5368660688400269,-0.7997350096702576
1790964439581042700,0.644042724609375,-0.4557350277900696,1.8132896423339844,-0.9726873636245728
1790964439591054800,0.654054931640625,-0.41197583079338074,1.8923218250274658,-1.0481102466583252
1790964439601066800,0.664066650390625,-0.32641085982322693,1.7609713077545166,-1.016540288925171
1790964439611078700,0.67407861328125,-0.18055513501167297,1.4090971946716309,-0.8911861181259155
1790964439621091800,0.684091796875,-0.04502979293465614,0.6104434132575989,-0.7116144895553589
1790964439631103700,0.694103759765625,-0.00475400872528553,-0.16404086351394653,-0.5280867218971252
1790964439641116000,0.704115966796875,-0.02269066497683525,-0.5747383832931519,-0.3499894440174103
1790964439651128800,0.71412890625,-0.022971361875534058,-0.709134042263031,-0.21090024709701538
1790964439661141000,0.72414111328125,-0.0030075078830122948,-0.8178716897964478,-0.13464489579200745
1790964439671153000,0.73415283203125,0.012739230878651142,-0.9271230697631836,-0.06286924332380295
1790964439681165800,0.744165771484375,0.01689882203936577,-0.8231884241104126,0.0016168050933629274
1790964439691177700,0.754177734375,0.04393203929066658,-0.5856762528419495,0.06503705680370331
1790964439701189600,0.764189697265625,0.062241002917289734,-0.35895416140556335,0.12170885503292084
1790964439711201800,0.774201904296875,0.07187578827142715,-0.18829427659511566,0.15772438049316406
1790964439721214700,0.784214599609375,0.06270093470811844,-0.10872887820005417,0.15673981606960297
1790964439731227000,0.794226806640625,0.04957421123981476,-0.13497886061668396,0.13104990124702454
1790964439741238800,0.80423876953125,0.04982960596680641,-0.20742882788181305,0.08765475451946259
1790964439751252000,0.814251953125,0.0520368367433548,-0.2858980596065521,0.025471804663538933
1790964439761263900,0.824263916015625,0.03766775131225586,-0.3866038918495178,-0.03982704132795334
1790964439771275800,0.83427587890625,0.01119193434715271,-0.4715116024017334,-0.08981110900640488
1790964439781289000,0.8442890625,-0.010457701049745083,-0.4929324686527252,-0.09770392626523972
1790964439791300900,0.85430078125,-0.029580529779195786,-0.43142303824424744,-0.08819910138845444
1790964439801313000,0.86431298828125,-0.034633077681064606,-0.3035396337509155,-0.07907963544130325
1790964439811325000,0.874324951171875,-0.029530195519328117,-0.1713951826095581,-0.0717783197760582
1790964439821337900,0.884337890625,-0.01841682381927967,-0.1063685193657875,-0.05657219886779785
1790964439831349800,0.894349853515625,-0.01227770559489727,-0.10172343254089355,-0.019240273162722588
1790964439841361700,0.904361572265625,-0.006682137493044138,-0.09248092770576477,0.050566237419843674
1790964439851374800,0.914374755859375,-0.01733664609491825,-0.06897640228271484,0.11509942263364792
1790964439861386800,0.92438671875,-0.029860161244869232,-0.011686483398079872,0.14571432769298553
1790964439871399000,0.93439892578125,-0.0626029297709465,0.035652268677949905,0.1159692108631134
1790964439881411800,0.944411865234375,-0.07813474535942078,0.022886672988533974,0.033798977732658386
1790964439891424000,0.954424072265625,-0.05103974789381027,-0.035764921456575394,-0.04043664038181305
1790964439901436000,0.964435791015625,-0.033598173409700394,-0.10111090540885925,-0.08546696603298187
1790964439911448800,0.97444873046875,-0.0314125157892704,-0.15842266380786896,-0.06548286974430084
1790964439921461000,0.9844609375,-0.039991091936826706,-0.11215503513813019,0.02576342038810253
1790964439931473000,0.994472900390625,-0.05963350087404251,-0.003430417738854885,0.10597064346075058
1790964439941485000,1.004485107421875,-0.0821627825498581,0.08220778405666351,0.1172584518790245
1790964439951497700,1.014497802734375,-0.0932718887925148,0.07366463541984558,0.05938822403550148
1790964439961510000,1.024510009765625,-0.08393165469169617,0.009036637842655182,-0.013533385470509529
1790964439971521800,1.034521728515625,-0.06709887832403183,-0.07245076447725296,-0.05678471922874451
1790964439981535000,1.044534912109375,-0.05240648239850998,-0.13981808722019196,-0.06688874959945679
1790964439991547000,1.054546875,-0.030128074809908867,-0.11837910860776901,-0.027415910735726357
1790964440001558800,1.064558837890625,-0.012021508999168873,-0.04577254876494408,0.022464029490947723
1790964440011572000,1.074572021484375,-0.008754342794418335,0.03603789582848549,0.03280534967780113
1790964440021584000,1.084583984375,-0.01455603912472725,0.07883010059595108,0.006557767745107412
1790964440031596000,1.094595947265625,-0.023500531911849976,0.008470982313156128,0.0018210695125162601
1790964440041608700,1.104608642578125,-0.029472671449184418,-0.19936184585094452,0.06349694728851318
1790964440051620900,1.114620849609375,0.022282402962446213,-0.4470747113227844,0.12543141841888428
1790964440061632800,1.1246328125,0.10812966525554657,-0.6718236804008484,0.17182369530200958
1790964440071644700,1.134644775390625,0.07620422542095184,-0.6773377060890198,0.221610426902771
1790964440081657900,1.144657958984375,0.0655747503042221,-0.5443857908248901,0.27773839235305786
1790964440091669800,1.154669677734375,0.05994589254260063,-0.4163823127746582,0.3170783519744873
1790964440101682000,1.164681884765625,0.046244993805885315,-0.3522656261920929,0.3484131097793579
1790964440111694800,1.17469482421875,0.04096394404768944,-0.30334922671318054,0.3792317509651184
1790964440121707000,1.18470703125,0.03261333703994751,-0.23337626457214355,0.37825703620910645
1790964440131719000,1.194718994140625,-0.015393337234854698,-0.30309489369392395,0.43806150555610657
1790964440141731800,1.20473193359375,-0.03291800245642662,-0.26723331212997437,0.4372020959854126
1790964440151744000,1.214743896484375,-0.04700079932808876,-0.14854073524475098,0.3811388313770294
1790964440161756000,1.224755859375,-0.0648045614361763,-0.04704926908016205,0.27662307024002075
1790964440171768800,1.234768798828125,-0.07804260402917862,-0.049861833453178406,0.18424174189567566
1790964440181780700,1.24478076171875,-0.11893144994974136,-0.240105539560318,0.15204386413097382
1790964440191793000,1.25479296875,-0.1781737357378006,-0.426376610994339,0.20057465136051178
1790964440201804800,1.2648046875,-0.205062597990036,-0.44465920329093933,0.2867633104324341
1790964440211817700,1.274817626953125,-0.20130647718906403,-0.28230518102645874,0.3728438913822174
1790964440221830000,1.284829833984375,-0.1704164743423462,-0.10166271030902863,0.4112301468849182
1790964440231841800,1.294841796875,-0.12860138714313507,0.04276450723409653,0.3805827498435974
1790964440241855000,1.30485498046875,-0.07865646481513977,0.08638735115528107,0.30454206466674805
1790964440251867000,1.314866943359375,-0.019769443199038506,0.0707242339849472,0.20617367327213287
1790964440261879000,1.324879150390625,0.0308106429874897,0.08108127117156982,0.10011807829141617
1790964440271891700,1.3348916015625,0.027158116921782494,0.060615941882133484,-0.015676431357860565
1790964440281903600,1.344903564453125,0.009748500771820545,0.08866888284683228,-0.13048504292964935
1790964440291915800,1.354915771484375,0.001062068622559309,0.17795801162719727,-0.21689023077487946
1790964440301928700,1.3649287109375,-0.009136239998042583,0.2494385838508606,-0.2597988247871399
1790964440311940900,1.37494091796875,-0.02172793261706829,0.30594101548194885,-0.22315798699855804
1790964440321952800,1.384952880859375,-0.062251657247543335,0.4612802565097809,-0.11411591619253159
1790964440331964700,1.394964599609375,-0.0702749639749527,0.7601852416992188,0.002871420234441757
1790964440341977900,1.404977783203125,-0.052558016031980515,0.8753802180290222,0.061715029180049896
1790964440351989800,1.41498974609375,-0.05217079445719719,0.602378249168396,0.06076081842184067
1790964440362002000,1.425001953125,-0.028200212866067886,0.268719881772995,0.035959865897893906
1790964440372014800,1.435014892578125,-0.004110589157789946,0.08076222240924835,0.005905559752136469
1790964440382024000,1.44502392578125,0.010831874795258045,0.007996407337486744,-0.016353672370314598
1790964440392035800,1.455035888671875,-0.0021845910232514143,-0.13255618512630463,0.003349457634612918
1790964440402049000,1.465049072265625,-0.02508458122611046,-0.32330483198165894,0.08598282188177109
1790964440412061000,1.47506103515625,-0.07104994356632233,-0.5553279519081116,0.23535951972007751
1790964440422073000,1.485072998046875,-0.1419491469860077,-0.8287333846092224,0.42606741189956665
1790964440432086000,1.4950859375,-0.2139008343219757,-0.959293007850647,0.5813859105110168
1790964440442098200,1.50509814453125,-0.3058962821960449,-0.9021740555763245,0.6308091282844543
1790964440452110000,1.515110107421875,-0.3953174948692322,-0.5149304270744324,0.5363145470619202
1790964440462123300,1.525123291015625,-0.6613025665283203,0.3767075836658478,0.3097916841506958
1790964440472135200,1.53513525390625,-0.6174496412277222,1.6419179439544678,-0.007475226651877165
1790964440482147000,1.54514697265625,-0.46220624446868896,2.2602970600128174,-0.39950504899024963
1790964440492159200,1.5551591796875,-0.46214500069618225,2.4571175575256348,-0.9103158712387085
1790964440502172000,1.565171875,-0.4902741014957428,2.7382898330688477,-1.4778056144714355
1790964440512184000,1.57518408203125,-0.4534825384616852,2.98442006111145,-2.0203816890716553
1790964440522196000,1.585196044921875,-0.435711532831192,2.9621684551239014,-2.525712728500366
1790964440532209200,1.595209228515625,-0.5311427116394043,2.676767110824585,-3.0219714641571045
1790964440542221000,1.605220947265625,-0.7120776176452637,1.8187531232833862,-3.515061855316162
1790964440552233000,1.61523291015625,-0.43206486105918884,0.7824734449386597,-3.9288501739501953
1790964440562246100,1.62524609375,-0.09435100108385086,0.31881099939346313,-4.454080581665039
1790964440572258000,1.635258056640625,0.04367530718445778,-0.370076060295105,-4.962764263153076
1790964440582270200,1.645270263671875,0.17219600081443787,-0.6037554144859314,-5.373430252075195
1790964440592283100,1.655283203125,0.25007960200309753,-0.1786067634820938,-5.520711421966553
1790964440602295000,1.665294921875,0.2491685450077057,0.5224334001541138,-5.326429843902588
1790964440612307000,1.675306884765625,0.17167428135871887,0.6158820986747742,-4.85084342956543
1790964440622320000,1.685320068359375,-0.15899896621704102,0.7184728980064392,-4.164535999298096
1790964440632332000,1.69533203125,-0.5866187214851379,0.8712670207023621,-3.3577582836151123
1790964440642344000,1.705343994140625,-1.1042677164077759,0.8285900950431824,-2.424659013748169
1790964440652357000,1.715357177734375,-1.6904492378234863,0.7397909760475159,-1.3883583545684814
1790964440662369000,1.725369140625,-2.283958673477173,0.5954633951187134,-0.34299835562705994
1790964440672381200,1.735381103515625,-2.7734129428863525,0.4294794499874115,0.5995792746543884
1790964440682393000,1.74539306640625,-3.0830090045928955,0.4319532811641693,1.4019478559494019
1790964440692406300,1.75540625,-3.2394092082977295,0.6201887130737305,2.066401243209839
1790964440702418200,1.765418212890625,-3.2832703590393066,0.9155582785606384,2.5734736919403076
1790964440712430000,1.77543017578125,-3.2030155658721924,1.1362941265106201,2.8848631381988525
1790964440722443000,1.785443115234375,-3.013089895248413,1.10013747215271,3.019052267074585
1790964440732455000,1.795454833984375,-2.758450984954834,0.8211279511451721,3.0005013942718506
1790964440742467000,1.805467041015625,-2.5121066570281982,0.42004626989364624,2.8723299503326416
1790964440752480000,1.81547998046875,-2.3406765460968018,0.03289483115077019,2.6418254375457764
1790964440762492000,1.825491943359375,-2.252610445022583,-0.23319676518440247,2.3313801288604736
1790964440772504000,1.835504150390625,-2.2107274532318115,-0.28003963828086853,1.9692823886871338
1790964440782517000,1.84551708984375,-2.1005964279174805,-0.1655261069536209,1.628453254699707
1790964440792529200,1.855529052734375,-1.9287054538726807,-0.08105011284351349,1.360748291015625
1790964440802541000,1.865541015625,-1.729764699935913,-0.11383549124002457,1.1844744682312012
1790964440812554200,1.87555419921875,-1.543739676475525,-0.07862317562103271,1.0622851848602295
1790964440822566100,1.885566162109375,-1.4030698537826538,0.1597616970539093,0.9410465955734253
1790964440832578000,1.895578125,-1.3175872564315796,0.23725037276744843,0.810753583908081
1790964440842591000,1.905591064453125,-1.2265640497207642,0.0358181856572628,0.7042593359947205
1790964440852603000,1.915602783203125,-1.0764094591140747,-0.15960058569908142,0.6488927602767944
1790964440862615000,1.925614990234375,-0.8909615874290466,-0.2635093927383423,0.6304157376289368
1790964440872628000,1.9356279296875,-0.7250235080718994,-0.23283298313617706,0.6208861470222473
1790964440882640100,1.94564013671875,-0.637346625328064,-0.11514735966920853,0.5802463293075562
1790964440892652000,1.955652099609375,-0.6588234305381775,-0.051294613629579544,0.4816473126411438
1790964440902665200,1.965665283203125,-0.7214551568031311,-0.24176016449928284,0.35831260681152344
1790964440912677000,1.975677001953125,-0.7103114128112793,-0.6343407034873962,0.2700496017932892
1790964440922689000,1.98568896484375,-0.5827896595001221,-0.88338702917099,0.2744366228580475
1790964440932702000,1.995701904296875,-0.3591728210449219,-0.832273542881012,0.3982642889022827
1790964440942713900,2.0057138671875,-0.0735546424984932,-0.6249517798423767,0.5800117254257202
1790964440952726000,2.01572607421875,0.22226741909980774,-0.45437416434288025,0.731781005859375
1790964440962738000,2.025738037109375,0.46059876680374146,-0.47359925508499146,0.7709259986877441
1790964440972751000,2.035751220703125,0.5770071148872375,-0.6870806217193604,0.6708561182022095
1790964440982763000,2.045762939453125,0.6455885767936707,-0.9132940769195557,0.5284460186958313
1790964440992775000,2.05577490234375,0.7830319404602051,-0.9131108522415161,0.42740511894226074
1790964441002788000,2.0657880859375,1.0484007596969604,-0.7713867425918579,0.42167481780052185
1790964441012800000,2.075800048828125,1.373841404914856,-0.46260866522789,0.5133330821990967
1790964441022812200,2.085812255859375,1.7195147275924683,-0.20190756022930145,0.6522270441055298
1790964441032825000,2.0958251953125,2.029322862625122,-0.2118890881538391,0.8674421310424805
1790964441042837200,2.105837158203125,2.2811481952667236,-0.36914315819740295,1.1885485649108887
1790964441052849200,2.11584912109375,2.4531235694885254,-0.4513416290283203,1.5337333679199219
1790964441062862000,2.125862060546875,2.509467840194702,-0.5771850347518921,1.8170220851898193
1790964441072874000,2.1358740234375,2.5021047592163086,-0.7455537915229797,2.000326633453369
1790964441082886000,2.145885986328125,2.4539709091186523,-0.8470258116722107,2.1023943424224854
1790964441092899000,2.155899169921875,2.3559670448303223,-0.7940981984138489,2.1733760833740234
1790964441102911000,2.165910888671875,2.2368314266204834,-0.4984830319881439,2.2640228271484375
1790964441112923100,2.175923095703125,2.1209826469421387,-0.008332498371601105,2.3186323642730713
1790964441122936000,2.18593603515625,2.0279228687286377,0.37581968307495117,2.334550380706787
1790964441132948200,2.1959482421875,1.9698238372802734,0.5388466715812683,2.3629586696624756
1790964441142960000,2.205960205078125,1.9524768590927124,0.4954789876937866,2.3642594814300537
1790964441152973000,2.21597314453125,1.9488831758499146,0.3339785039424896,2.3893518447875977
1790964441162985000,2.22598486328125,1.8582056760787964,0.34280529618263245,2.557412624359131
1790964441172997000,2.2359970703125,1.7713028192520142,0.24836213886737823,2.851628541946411
1790964441183010000,2.246010009765625,1.7450752258300781,0.23247452080249786,3.197030782699585
1790964441193022000,2.25602197265625,1.781412959098816,0.4169069528579712,3.499910593032837
1790964441203034000,2.2660341796875,1.8212860822677612,0.7647392153739929,3.6696579456329346
1790964441213047000,2.276047119140625,1.7670841217041016,1.3403513431549072,3.7622013092041016
1790964441223059200,2.28605908203125,1.6109492778778076,1.7254778146743774,3.9085543155670166
1790964441233071000,2.296071044921875,1.3919346332550049,1.5374457836151123,4.164909839630127
1790964441243084000,2.306083984375,1.1773957014083862,0.7870144248008728,4.474870204925537
1790964441253096200,2.31609619140625,1.0330108404159546,0.17017412185668945,4.768929958343506
1790964441263108000,2.326108154296875,0.9583808779716492,-0.03268737345933914,5.013153553009033
1790964441273121000,2.33612109375,0.9417145252227783,-0.07496052980422974,5.220337867736816
1790964441283133000,2.3461328125,0.9753366708755493,0.15734940767288208,5.387468338012695
1790964441293144800,2.356144775390625,1.0678809881210327,0.4065065085887909,5.243490219116211
1790964441303158000,2.366157958984375,1.2195913791656494,0.7818308472633362,4.745326995849609
1790964441313170000,2.376169921875,1.4283158779144287,1.2040894031524658,4.107758522033691
1790964441323182000,2.38618212890625,1.623241901397705,1.3070306777954102,3.352259874343872
1790964441333195000,2.396195068359375,1.7821245193481445,1.0725438594818115,2.550837516784668
1790964441343207200,2.406207275390625,1.8686319589614868,0.8568193316459656,1.759732961654663
1790964441353219000,2.416218994140625,1.8145519495010376,0.8037369251251221,0.9860324859619141
1790964441363232300,2.426232177734375,1.6044557094573975,0.8035979270935059,0.2269740253686905
1790964441373244200,2.436244140625,1.271628737449646,0.7758842706680298,-0.4641399681568146
1790964441383256600,2.446256591796875,0.8702555298805237,0.7231963276863098,-1.0462942123413086
1790964441393269800,2.456269775390625,0.49109703302383423,0.6048824191093445,-1.505257487297058
1790964441403281700,2.46628173828125,0.17525064945220947,0.38860633969306946,-1.8205374479293823
1790964441413293600,2.47629345703125,-0.05301101878285408,0.16927345097064972,-1.9907976388931274
1790964441423306800,2.486306640625,-0.21044857800006866,0.1595313400030136,-2.0577824115753174
1790964441433318700,2.496318603515625,-0.3098529279232025,0.4884383976459503,-2.0709471702575684
1790964441443330800,2.506330810546875,-0.36190149188041687,0.7673277854919434,-1.9713679552078247
1790964441453343700,2.51634375,-0.31928637623786926,0.629795491695404,-1.670149326324463
1790964441463356000,2.52635595703125,-0.14054939150810242,-0.027950141578912735,-1.0936286449432373
1790964441473368600,2.53636865234375,0.09007609635591507,-0.4454938471317291,-0.4035908877849579
1790964441483380700,2.546380615234375,0.2651059627532959,-0.2547880709171295,0.2045414298772812
1790964441493392600,2.556392578125,0.34051522612571716,0.2428390085697174,0.6867411136627197
1790964441503405600,2.566405517578125,0.3533458113670349,0.6820635199546814,1.0820913314819336
1790964441513417700,2.576417724609375,0.31004655361175537,0.9232420325279236,1.3802777528762817
1790964441523429600,2.5864296875,0.18772275745868683,0.9844164252281189,1.585507869720459
1790964441533442800,2.59644287109375,0.001386707997880876,0.8736696839332581,1.7189115285873413
1790964441543454700,2.606454833984375,-0.22496414184570312,0.4918949007987976,1.8014662265777588
1790964441553467000,2.616466796875,-0.46701672673225403,0.0771017074584961,1.8170753717422485
1790964441563479600,2.6264794921875,-0.658702552318573,-0.11679239571094513,1.7595609426498413
1790964441573491500,2.636491455078125,-0.7792885899543762,-0.02550988644361496,1.6505036354064941
1790964441583503600,2.646503662109375,-0.7694221138954163,0.16792802512645721,1.5555912256240845
1790964441593516500,2.6565166015625,-0.64958256483078,0.3914561867713928,1.457741379737854
1790964441603528700,2.66652880859375,-0.45054560899734497,0.5498785972595215,1.3548794984817505
1790964441613540600,2.67654052734375,-0.2183307409286499,0.5760260224342346,1.1927869319915771
1790964441623553800,2.6865537109375,-0.007178017869591713,0.48153334856033325,0.907293438911438
1790964441633565700,2.696565673828125,0.1446506530046463,0.29100626707077026,0.5262169241905212
1790964441643579000,2.706578857421875,0.20208971202373505,0.08247996121644974,0.09646928310394287
1790964441653590800,2.7165908203125,0.17240506410598755,-0.06136908382177353,-0.351505845785141
1790964441663602700,2.726602783203125,0.043410856276750565,-0.12286600470542908,-0.7844599485397339
1790964441673615600,2.73661572265625,-0.17870290577411652,-0.16812296211719513,-1.2277404069900513
1790964441683627500,2.74662744140625,-0.33875301480293274,-0.24136202037334442,-1.614275574684143
1790964441693639700,2.7566396484375,-0.348031222820282,-0.3771643340587616,-1.856933832168579
1790964441703652600,2.766652587890625,-0.28392651677131653,-0.5065516233444214,-2.023759603500366
1790964441713664800,2.776664794921875,-0.1881382167339325,-0.6028677821159363,-2.146700859069824
1790964441723677700,2.786677734375,-0.08180911093950272,-0.7050521969795227,-2.1654510498046875
1790964441733689900,2.79668994140625,0.005733785685151815,-0.7724424004554749,-2.0535454750061035
1790964441743701800,2.80670166015625,0.030976558104157448,-0.7362015843391418,-1.8267357349395752
1790964441753714700,2.816714599609375,-0.0008953547803685069,-0.7031650543212891,-1.447434663772583
1790964441763726600,2.8267265625,-0.051240283995866776,-0.5065851807594299,-0.9995304346084595
1790964441773738500,2.836738525390625,-0.07253571599721909,-0.1302568018436432,-0.5774140954017639
1790964441783751700,2.846751708984375,-0.04002651199698448,0.20689938962459564,-0.2117929458618164
1790964441793763600,2.856763671875,0.032274581491947174,0.39968401193618774,0.14289723336696625
1790964441803775700,2.866775634765625,0.10108054429292679,0.45567086338996887,0.5619637370109558
1790964441813788700,2.87678857421875,0.1253611147403717,0.531163215637207,1.022375226020813
1790964441823800800,2.88680078125,0.05663212016224861,0.8574103116989136,1.402207612991333
1790964441833813800,2.896813720703125,-0.019285280257463455,1.2082061767578125,1.6121737957000732
1790964441843825700,2.90682568359375,0.004727909807115793,1.4244921207427979,1.6300159692764282
1790964441853837800,2.916837890625,0.061166685074567795,1.3097684383392334,1.4854412078857422
1790964441863850500,2.9268505859375,0.06998973339796066,0.9381682872772217,1.2719289064407349
1790964441873862700,2.936862548828125,0.026338662952184677,0.48301300406455994,1.0627189874649048
1790964441883874600,2.94687451171875,-0.06034722924232483,0.2459288090467453,0.790501058101654
1790964441893887700,2.9568876953125,-0.19337159395217896,0.03251080587506294,0.32083314657211304
1790964441903899600,2.966899658203125,-0.3294772207736969,-0.24459590017795563,-0.42579126358032227
1790964441913911600,2.97691162109375,-0.43474212288856506,-0.5395079851150513,-1.2766600847244263
1790964441923924700,2.9869248046875,-0.5386309623718262,-0.9218007326126099,-1.9549461603164673
1790964441933936600,2.9969365234375,-0.6696390509605408,-1.2428935766220093,-2.416870594024658
1790964441943949800,3.00694970703125,-0.8116385340690613,-1.4119089841842651,-2.6815361976623535
1790964441953961700,3.016961669921875,-0.9742199778556824,-1.4698089361190796,-2.7311182022094727
1790964441963974000,3.026973876953125,-1.0458593368530273,-1.464904546737671,-2.476511001586914
1790964441973986600,3.036986572265625,-0.9215490818023682,-1.3203816413879395,-1.9055171012878418
1790964441983998700,3.046998779296875,-0.608721137046814,-1.0290513038635254,-1.127782940864563
1790964441994010600,3.0570107421875,-0.2666796147823334,-0.6559762358665466,-0.36322081089019775
1790964442004023800,3.06702392578125,-0.1004863902926445,-0.40006643533706665,0.15824556350708008
1790964442014035700,3.07703564453125,-0.011997007764875889,-0.3781249225139618,0.4454592168331146
1790964442024047600,3.087047607421875,0.1960480660200119,-0.38899222016334534,0.518464982509613
1790964442034060800,3.097060791015625,0.6694430708885193,-0.49422651529312134,0.3546012341976166
1790964442044072700,3.10707275390625,1.2795889377593994,-0.7923436760902405,0.10061928629875183
1790964442054085600,3.117085693359375,1.762416124343872,-1.1508903503417969,-0.2851395905017853
1790964442064097500,3.12709765625,1.9200810194015503,-1.417402744293213,-0.9277843236923218
1790964442074109700,3.137109619140625,1.741968035697937,-1.618446946144104,-1.6006122827529907
1790964442084122600,3.14712255859375,1.3491864204406738,-1.7834076881408691,-1.9940098524093628
1790964442094134500,3.157134521484375,0.8631802797317505,-1.7994449138641357,-2.0792267322540283
1790964442104146700,3.167146728515625,0.3896942436695099,-1.6940228939056396,-1.8932782411575317
1790964442114159600,3.17715966796875,0.03831596300005913,-1.4441959857940674,-1.491003155708313
1790964442124171800,3.187171875,-0.11489089578390121,-1.0224013328552246,-1.01832115650177
1790964442134184700,3.197184814453125,-0.03714310750365257,-0.5516554117202759,-0.5804972052574158
1790964442144196900,3.20719677734375,0.0005163869354873896,-0.30015504360198975,-0.300808846950531
1790964442154208800,3.217208740234375,-0.17888639867305756,-0.3162085711956024,-0.20940221846103668
1790964442164221700,3.2272216796875,-0.41911283135414124,-0.3639744818210602,-0.24929477274417877
1790964442174233600,3.237233642578125,-0.6025111675262451,-0.3655622601509094,-0.3317185342311859
1790964442184245500,3.24724560546875,-0.8073780536651611,-0.3660421669483185,-0.32979628443717957
1790964442194258700,3.2572587890625,-0.9875933527946472,-0.3706401288509369,-0.23772121965885162
1790964442204270600,3.2672705078125,-1.0811434984207153,-0.29320791363716125,-0.08417985588312149
1790964442214283800,3.27728369140625,-1.145340085029602,-0.24915443360805511,0.08543393760919571
1790964442224295700,3.287295654296875,-1.2422069311141968,-0.32538607716560364,0.22137659788131714
1790964442234307800,3.297307861328125,-1.3705183267593384,-0.38178199529647827,0.38112470507621765
1790964442244320500,3.307320556640625,-1.5149455070495605,-0.2972250282764435,0.6092169880867004
1790964442254332700,3.317332763671875,-1.5993165969848633,-0.1399131566286087,0.8711844086647034
1790964442264344600,3.327344482421875,-1.6324440240859985,-0.013362144120037556,1.1235756874084473
1790964442274357800,3.337357666015625,-1.7131925821304321,0.1684848815202713,1.261771321296692
1790964442284369700,3.34736962890625,-1.6987500190734863,0.29579490423202515,1.2451220750808716
1790964442294381600,3.357381591796875,-1.5282912254333496,0.23531317710876465,1.1651936769485474
1790964442304394800,3.367394775390625,-1.2257441282272339,0.14920786023139954,1.1241940259933472
1790964442314406700,3.37740673828125,-0.8597906231880188,0.11102025955915451,1.090577244758606
1790964442324419800,3.387419921875,-0.5573647022247314,0.08265892416238785,1.0148297548294067
1790964442334431700,3.397431640625,-0.47301575541496277,0.003063700394704938,0.8397269248962402
1790964442344444000,3.40744384765625,-0.6242920756340027,0.06136615574359894,0.6880614757537842
1790964442354456600,3.41745654296875,-0.8197864890098572,0.27988117933273315,0.6758514046669006
1790964442364468500,3.427468505859375,-0.8009248971939087,0.5208762288093567,0.7347187399864197
1790964442374480600,3.437480712890625,-0.7838394045829773,0.5778968930244446,0.7407441139221191
1790964442384493000,3.4474931640625,-0.9483165144920349,0.5000729560852051,0.6490728259086609
1790964442394505000,3.4575048828125,-1.2304438352584839,0.44863876700401306,0.5704392194747925
1790964442404518100,3.46751806640625,-1.304864764213562,0.4176853895187378,0.6988654136657715
1790964442414530000,3.477530029296875,-1.0441192388534546,0.40755099058151245,0.9132421612739563
1790964442424542200,3.487542236328125,-0.6159303188323975,0.502246081829071,1.0639078617095947
1790964442434555100,3.49755517578125,-0.17537261545658112,0.8230352997779846,1.1004557609558105
1790964442444567300,3.5075673828125,0.1610216498374939,1.2268404960632324,1.0199390649795532
1790964442454579200,3.5175791015625,0.4297069013118744,1.4490717649459839,0.8994275331497192
1790964442464592100,3.527592041015625,0.5703907608985901,1.1439954042434692,0.7791663408279419
1790964442474604000,3.53760400390625,0.605363130569458,0.4272695779800415,0.6502379179000854
1790964442484616000,3.547615966796875,0.6744226217269897,-0.1902698129415512,0.43315887451171875
1790964442494629000,3.557629150390625,0.8279381394386292,-0.46839702129364014,0.07944528758525848
1790964442504641000,3.56764111328125,0.8940843939781189,-0.5282710194587708,-0.28174272179603577
1790964442514654200,3.577654296875,0.8287272453308105,-0.5806196928024292,-0.5550392270088196
1790964442524666000,3.587666015625,0.710185706615448,-0.7844647169113159,-0.8124324083328247
1790964442534678000,3.597677978515625,0.6282668709754944,-1.012418508529663,-1.1120500564575195
1790964442544691200,3.607691162109375,0.591764509677887,-1.0160475969314575,-1.3916300535202026
1790964442554703000,3.617703125,0.5819259881973267,-0.8229910731315613,-1.4265307188034058
1790964442564715300,3.62771533203125,0.33381152153015137,-0.6153257489204407,-1.262571930885315
1790964442574728000,3.63772802734375,0.13317935168743134,-0.5976647138595581,-0.9320570826530457
1790964442584740000,3.647739990234375,0.15139085054397583,-0.5609447956085205,-0.46845003962516785
1790964442594753000,3.6577529296875,0.03241866081953049,-0.004739094991236925,-0.49626675248146057
1790964442604765200,3.66776513671875,-0.05245521664619446,-0.09572599083185196,-0.5482625961303711
1790964442614777000,3.677777099609375,0.002740659052506089,-0.20322422683238983,-0.5128949880599976
1790964442624790300,3.687790283203125,0.014414092525839806,-0.2015456259250641,-0.23742826282978058
1790964442634802200,3.69780224609375,-0.059956278651952744,-0.08355268090963364,0.04626443237066269
1790964442644814000,3.70781396484375,-0.04430674389004707,-0.02737223543226719,0.08991124480962753
1790964442654827000,3.717826904296875,-0.07356876134872437,0.03989122435450554,0.1354379802942276
1790964442664839000,3.7278388671875,-0.1366976648569107,0.08500570803880692,0.17617662250995636
1790964442674852000,3.73785205078125,-0.2309112399816513,0.056463275104761124,0.08671705424785614
1790964442684864000,3.747864013671875,-0.35733070969581604,-0.0944061279296875,-0.17531269788742065
1790964442694876200,3.757876220703125,-0.5297959446907043,-0.33278942108154297,-0.5395479202270508
1790964442704889000,3.76788916015625,-0.677390992641449,-0.5409588813781738,-0.861051082611084
1790964442714901200,3.7779013671875,-0.7464593052864075,-0.5018982887268066,-1.150355339050293
1790964442724913200,3.7879130859375,-0.8089122772216797,-0.5367609262466431,-1.3011536598205566
1790964442734926000,3.797926025390625,-1.0187057256698608,-0.7916746735572815,-1.246141791343689
1790964442744938200,3.807938232421875,-1.348854899406433,-1.2341700792312622,-1.043800711631775
1790964442754951000,3.817950927734375,-1.6253647804260254,-2.016611337661743,-0.6151257753372192
1790964442764963000,3.827963134765625,-1.918956995010376,-2.9061810970306396,-0.21026775240898132
1790964442774975000,3.83797509765625,-2.3226144313812256,-3.232703685760498,-0.15722477436065674
1790964442784988200,3.84798828125,-2.823481798171997,-3.0148098468780518,-0.27805426716804504
1790964442795000000,3.858,-3.262709140777588,-2.497241258621216,-0.35954272747039795
1790964442805012000,3.868011962890625,-3.547029972076416,-1.9093365669250488,-0.3836890757083893
1790964442815025200,3.878025146484375,-3.5665605068206787,-1.115896224975586,-0.42399361729621887
1790964442825037000,3.888037109375,-3.2974441051483154,-0.41609522700309753,-0.39222875237464905
1790964442835050000,3.898050048828125,-2.7758471965789795,-0.26298102736473083,-0.19290101528167725
1790964442845062100,3.908062255859375,-2.1466779708862305,-0.8328551650047302,0.10659648478031158
1790964442855074000,3.918073974609375,-1.6038466691970825,-1.6693958044052124,0.22487998008728027
1790964442865087000,3.9280869140625,-1.2183171510696411,-2.2062392234802246,0.008859271183609962
1790964442875099100,3.93809912109375,-0.9292384386062622,-2.2746529579162598,-0.4158310294151306
1790964442885111000,3.948111083984375,-0.7805533409118652,-2.0998940467834473,-0.9143220782279968
1790964442895124200,3.958124267578125,-0.7127769589424133,-1.8892898559570312,-1.2126413583755493
1790964442905136000,3.96813623046875,-0.6392965912818909,-1.6662378311157227,-1.1582984924316406
1790964442915149300,3.9781494140625,-0.5878698825836182,-1.4020885229110718,-0.8922345638275146
1790964442925161200,3.9881611328125,-0.5490295886993408,-1.0475293397903442,-0.6469899415969849
1790964442935173000,3.998173095703125,-0.4954989552497864,-0.7289170622825623,-0.4748924970626831
1790964442945186000,4.00818603515625,-0.4152294099330902,-0.4094466269016266,-0.3357878625392914
1790964442955198000,4.018197998046875,-0.2707214951515198,-0.020290091633796692,-0.1552327275276184
1790964442965210000,4.028210205078125,-0.07369685918092728,0.4788230359554291,0.05780817195773125
1790964442975223000,4.03822314453125,0.14751754701137543,1.0262384414672852,0.23019059002399445
1790964442985235200,4.048235107421875,0.3015414774417877,1.4617185592651367,0.3117845356464386
1790964442995248000,4.058248046875,0.34354645013809204,1.655664324760437,0.35006532073020935
1790964443005260000,4.068260009765625,0.32127150893211365,1.5754497051239014,0.38237667083740234
1790964443015272200,4.078272216796875,0.2869875729084015,1.326315999031067,0.39824217557907104
1790964443025285000,4.08828515625,0.29140999913215637,0.9060976505279541,0.45020392537117004
1790964443035297300,4.09829736328125,0.3230513036251068,0.38992753624916077,0.5695822238922119
1790964443045310000,4.10831005859375,0.3334125876426697,0.02954377792775631,0.6342552304267883
1790964443055322000,4.118322021484375,0.34780192375183105,0.08914025872945786,0.6233024597167969
1790964443065334000,4.128333984375,0.4578208327293396,0.4474707245826721,0.7124861478805542
1790964443075347200,4.13834716796875,0.6038365960121155,0.8930005431175232,0.9001234173774719
1790964443085359000,4.148359130859375,0.6832078695297241,1.1374808549880981,1.100220799446106
1790964443095371000,4.15837109375,0.6849205493927002,0.9704287052154541,1.3253545761108398
1790964443105384200,4.16838427734375,0.6438189148902893,0.8100947141647339,1.470003604888916
1790964443115396000,4.17839599609375,0.5422906875610352,0.9546098113059998,1.3716387748718262
1790964443125409000,4.188408935546875,0.3098177909851074,1.1856129169464111,1.0651004314422607
1790964443135421000,4.1984208984375,-0.017662616446614265,1.2060871124267578,0.75831139087677
1790964443145433000,4.20843310546875,-0.36136725544929504,0.9478315711021423,0.5502367615699768
1790964443155446000,4.218446044921875,-0.6180043816566467,0.47237685322761536,0.44218167662620544
1790964443165458200,4.228458251953125,-0.7368463277816772,-0.16390398144721985,0.3966437578201294
1790964443175470000,4.238469970703125,-0.6928519606590271,-0.8782540559768677,0.39251506328582764
1790964443185483300,4.248483154296875,-0.5977643728256226,-1.3330132961273193,0.2918262481689453
1790964443195495200,4.2584951171875,-0.5410224795341492,-1.454239845275879,0.05149461701512337
1790964443205508000,4.268508056640625,-0.5188780426979065,-1.329458236694336,-0.2660854756832123
1790964443215520300,4.278520263671875,-0.48528653383255005,-1.022288203239441,-0.5440766215324402
1790964443225532200,4.2885322265625,-0.42945337295532227,-0.698543131351471,-0.6383700966835022
1790964443235545000,4.298545166015625,-0.3687479496002197,-0.4479506015777588,-0.5709213018417358
1790964443245557000,4.308556884765625,-0.3043859899044037,-0.3060440719127655,-0.386510968208313
1790964443255570200,4.318570068359375,-0.2540232241153717,-0.25501126050949097,-0.12617817521095276
1790964443265582000,4.32858203125,-0.21984981000423431,-0.06287403404712677,0.06705173850059509
1790964443275594000,4.338593994140625,-0.2255212664604187,0.32651394605636597,0.07968311011791229
1790964443285607200,4.348607177734375,-0.2454875260591507,0.6894311308860779,-0.038170553743839264
1790964443295619000,4.358619140625,-0.2863055169582367,0.828916609287262,-0.19732186198234558
1790964443305631200,4.36863134765625,-0.34341302514076233,0.6460831165313721,-0.3224118649959564
1790964443315644000,4.378643798828125,-0.35431787371635437,0.2516298294067383,-0.36868855357170105
1790964443325656000,4.388656005859375,-0.23984988033771515,-0.14981532096862793,-0.24955657124519348
1790964443335669000,4.3986689453125,-0.028391694650053978,-0.4678114056587219,0.045168276876211166
1790964443345681200,4.40868115234375,0.14722061157226562,-0.5229185819625854,0.34395551681518555
1790964443355693000,4.418693115234375,0.22062824666500092,-0.2913873791694641,0.4193754196166992
1790964443365706200,4.428706298828125,0.2386445254087448,0.05920526757836342,0.22507093846797943
1790964443375718100,4.43871826171875,0.2481195330619812,0.2526189386844635,-0.03239629045128822
1790964443385730600,4.44873046875,0.24621190130710602,0.278775691986084,-0.16820791363716125
1790964443395743500,4.458743408203125,0.19032014906406403,0.21967723965644836,-0.12078793346881866
1790964443405755400,4.46875537109375,0.11036698520183563,0.15152667462825775,0.05702813342213631
1790964443415768600,4.4787685546875,-0.013857492245733738,0.2634641230106354,0.21544626355171204
1790964443425780500,4.488780517578125,-0.20977745950222015,0.5867143869400024,0.24537354707717896
1790964443435792400,4.49879248046875,-0.45854121446609497,0.9466981291770935,0.12368039786815643
1790964443445805600,4.5088056640625,-0.19296865165233612,0.7008094787597656,0.2848551571369171
1790964443455817500,4.5188173828125,0.49774986505508423,0.6644176840782166,0.28798678517341614
1790964443465830700,4.52883056640625,1.2061070203781128,0.5844472050666809,0.27502676844596863
1790964443475842600,4.538842529296875,1.4293550252914429,0.3151797950267792,0.32967349886894226
1790964443485854700,4.548854736328125,1.1225594282150269,0.22373828291893005,0.30110791325569153
1790964443495867400,4.558867431640625,0.5496042966842651,0.5843566656112671,0.06247749179601669
1790964443505879600,4.568879638671875,0.20246629416942596,0.21853101253509521,0.200916588306427
1790964443515891500,4.578891357421875,0.49926093220710754,-1.672926425933838,1.2907060384750366
1790964443525904600,4.588904541015625,0.647429883480072,-2.049434185028076,1.6409343481063843
1790964443535916500,4.59891650390625,0.37989726662635803,-1.17733633518219,1.3749415874481201
1790964443545929700,4.6089296875,0.18305157124996185,-0.32419803738594055,1.1949353218078613
1790964443555941600,4.618941650390625,0.06701711565256119,0.7407894134521484,0.8299746513366699
1790964443565953500,4.62895361328125,0.0005403553950600326,1.461863398551941,0.3729429543018341
1790964443575966700,4.638966796875,-0.07296262681484222,1.911333680152893,-0.15704980492591858
1790964443585978600,4.648978515625,-0.17065829038619995,2.76765775680542,-0.8368501663208008
1790964443595991600,4.658991455078125,-0.32948121428489685,3.914674997329712,-1.627350091934204
1790964443606003500,4.66900341796875,-0.4159729778766632,4.290706157684326,-2.0718131065368652
1790964443616015600,4.679015625,-0.13575276732444763,2.5304911136627197,-1.5418953895568848
1790964443626028500,4.689028564453125,0.42590710520744324,-0.18352189660072327,-0.3879394829273224
1790964443636040400,4.69904052734375,0.4463074505329132,-0.40698906779289246,0.019749203696846962
1790964443646053600,4.7090537109375,0.42560508847236633,0.02502971887588501,0.3507918417453766
1790964443656065500,4.7190654296875,0.4456445872783661,0.5002859830856323,0.5669252276420593
1790964443666077700,4.72907763671875,0.4303271472454071,0.9367354512214661,0.5696520209312439
1790964443676090400,4.73909033203125,0.4769819974899292,1.1002391576766968,0.5649397969245911
1790964443686102500,4.7491025390625,0.6739214062690735,0.9797215461730957,0.7309290766716003
1790964443696115500,4.759115478515625,0.8849585652351379,0.9355583786964417,0.8810615539550781
1790964443706127600,4.769127685546875,0.9863054156303406,1.0583490133285522,0.8721897602081299
1790964443716139500,4.779139404296875,0.9054633378982544,1.1672097444534302,0.7547377347946167
1790964443726152700,4.789152587890625,0.7006108164787292,1.2647356986999512,0.581904947757721
1790964443736164600,4.79916455078125,0.4395589828491211,1.3205238580703735,0.37669801712036133
1790964443746176500,4.809176513671875,0.17683495581150055,1.3489222526550293,0.19625739753246307
1790964443756189700,4.819189697265625,-0.03560513257980347,1.352251410484314,0.13657967746257782
1790964443766201600,4.82920166015625,-0.07840825617313385,1.2143700122833252,0.3242606222629547
1790964443776214500,4.839214599609375,0.09561707079410553,0.8071141242980957,0.6180139780044556
1790964443786226400,4.849226318359375,0.3418790400028229,0.13758635520935059,0.7194343209266663
1790964443796238600,4.859238525390625,0.504335343837738,-0.44169166684150696,0.568446695804596
1790964443806251500,4.86925146484375,0.5532402992248535,-0.6825295686721802,0.2751428782939911
1790964443816263700,4.879263671875,0.5564166307449341,-0.6743634939193726,-0.03163782134652138
1790964443826276600,4.889276611328125,0.5509265065193176,-0.5885040163993835,-0.24448856711387634
1790964443836288500,4.89928857421875,0.4656084477901459,-0.5042740702629089,-0.36398035287857056
1790964443846300700,4.90930078125,0.3302040100097656,-0.502326250076294,-0.3833197057247162
1790964443856313300,4.919313232421875,0.25170227885246277,-0.6693530678749084,-0.30139926075935364
1790964443866325500,4.929325439453125,0.1742042899131775,-0.8740569353103638,-0.22399021685123444
1790964443876338400,4.93933837890625,0.1408601850271225,-0.905207633972168,-0.30384084582328796
1790964443886350600,4.9493505859375,0.15674780309200287,-0.8092142939567566,-0.4490547478199005
1790964443896362500,4.959362548828125,0.15920057892799377,-0.6390185952186584,-0.5075758695602417
1790964443906375700,4.969375732421875,0.19649547338485718,-0.5360831618309021,-0.4187977910041809
1790964443916387600,4.9793876953125,0.3808858394622803,-0.41366028785705566,-0.23742613196372986
1790964443926399500,4.9893994140625,0.6012418866157532,-0.13565050065517426,-0.018455972895026207
1790964443936412700,4.99941259765625,0.7508899569511414,0.017608022317290306,0.3337516188621521
1790964443946424600,5.009424560546875,0.8391093015670776,0.10813472419977188,0.5110054612159729
1790964443956437500,5.0194375,0.8964176177978516,0.2949559986591339,0.4065890610218048
1790964443966449400,5.029449462890625,0.9036864638328552,0.4854271411895752,0.28752952814102173
1790964443976461600,5.039461669921875,0.8065692186355591,0.659074068069458,0.27964550256729126
1790964443986474500,5.049474609375,0.5960788130760193,0.6397831439971924,0.323974072933197
1790964443996486700,5.059486572265625,0.1912945955991745,0.4896661043167114,0.45821788907051086
1790964444006499600,5.06949951171875,-0.43459993600845337,0.4294445812702179,0.5588052272796631
1790964444016511500,5.079511474609375,-1.0739468336105347,0.3473057746887207,0.6553269624710083
1790964444026523600,5.089523681640625,-1.6192253828048706,0.2307509183883667,0.8137089014053345
1790964444036536600,5.09953662109375,-2.016341209411621,0.2905418276786804,0.9728569984436035
1790964444046548500,5.109548583984375,-2.298579692840576,0.5733258724212646,1.0082837343215942
1790964444056561400,5.1195615234375,-2.390188455581665,0.9086945056915283,0.658935010433197
1790964444066573600,5.129573486328125,-2.2055978775024414,1.060029149055481,-0.03910612314939499
1790964444076585500,5.13958544921875,-1.769237756729126,0.9768706560134888,-0.6881067752838135
1790964444086598700,5.1495986328125,-1.0894269943237305,0.7754606008529663,-1.0418381690979004
1790964444096610600,5.159610595703125,-0.2923160195350647,0.6892130374908447,-1.2052894830703735
1790964444106623700,5.169623779296875,0.37650731205940247,0.7284741401672363,-1.1858899593353271
1790964444116635600,5.1796357421875,0.7611125111579895,0.9452967643737793,-1.0025800466537476
1790964444126647600,5.1896474609375,0.8913419246673584,1.1715162992477417,-0.6746202707290649
1790964444136660500,5.199660400390625,0.8919187188148499,0.9915731549263,-0.30982255935668945
1790964444146672400,5.20967236328125,0.8715183734893799,0.3608572483062744,0.020425112918019295
1790964444156685600,5.219685546875,0.8713719248771667,-0.18927805125713348,0.1858191341161728
1790964444166697500,5.229697509765625,0.8331403732299805,-0.32314956188201904,0.028506476432085037
1790964444176710700,5.239710693359375,0.8300838470458984,-0.24808543920516968,-0.16620787978172302
1790964444186722600,5.24972265625,0.9094316959381104,-0.1772775799036026,-0.21675974130630493
1790964444196734700,5.259734619140625,0.95489901304245,-0.248173326253891,-0.2350258231163025
1790964444206747600,5.26974755859375,0.9476709365844727,-0.4196356236934662,-0.3141653835773468
1790964444216759600,5.279759521484375,0.9276330471038818,-0.5754646062850952,-0.39666053652763367
1790964444226771700,5.289771728515625,0.9329444766044617,-0.6696955561637878,-0.46655839681625366
1790964444236784400,5.299784423828125,0.9908756613731384,-0.6307917833328247,-0.4216127395629883
1790964444246796500,5.309796630859375,1.0040266513824463,-0.14914900064468384,-0.2992610037326813
1790964444256809500,5.3198095703125,0.9636435508728027,0.5046370625495911,-0.15127819776535034
1790964444266821600,5.329821533203125,0.9466765522956848,0.774603545665741,-0.06557128578424454
1790964444276834600,5.33983447265625,0.9262740612030029,0.687544047832489,-0.08043412119150162
1790964444286846700,5.3498466796875,0.9049122929573059,0.329650342464447,-0.044137634336948395
1790964444296858600,5.359858642578125,0.9574666023254395,0.1335950791835785,-0.04459969326853752
1790964444306871600,5.36987158203125,0.9915624856948853,0.20910021662712097,-0.05238970369100571
1790964444316883500,5.379883544921875,0.9767526984214783,0.2811805307865143,-0.10757652670145035
1790964444326896600,5.389896728515625,0.8862930536270142,0.1743672788143158,-0.1843906193971634
1790964444336908500,5.399908447265625,0.5419428944587708,0.09054961055517197,-0.362751305103302
1790964444346920400,5.40992041015625,-0.35378551483154297,0.07029200345277786,-0.7113659977912903
1790964444356933600,5.41993359375,-1.4850044250488281,0.062073491513729095,-0.9633207321166992
1790964444366945500,5.429945556640625,-2.5367431640625,0.1258905529975891,-0.9167079925537109
1790964444376958700,5.439958740234375,-3.023101329803467,0.5854200720787048,-0.5682112574577332
1790964444386970000,5.44997021484375,-2.6624984741210938,0.27256494760513306,-0.275778591632843
1790964444396982000,5.45998193359375,-1.718034267425537,-0.44050443172454834,-0.2826484739780426
1790964444406995000,5.469994873046875,-1.0628811120986938,-0.6080209612846375,-0.29508915543556213
1790964444417006800,5.4800068359375,-0.8589403033256531,-0.22773729264736176,-0.1440269500017166
1790964444427019800,5.490019775390625,-0.5704557299613953,0.29267048835754395,-0.02791259065270424
1790964444437032000,5.500031982421875,-0.10253915935754776,0.6166656017303467,-0.11919962614774704
1790964444447043800,5.5100439453125,0.34982138872146606,0.6739028096199036,-0.3304482102394104
1790964444457057000,5.52005712890625,0.6238348484039307,0.5547710657119751,-0.3867815434932709
1790964444467069000,5.53006884765625,0.7747945189476013,0.46085548400878906,-0.23576006293296814
1790964444477082000,5.54008203125,0.8381074666976929,0.568903386592865,0.032594162970781326
1790964444487094000,5.550093994140625,0.9069618582725525,0.9183276891708374,0.22301630675792694
1790964444497106000,5.56010595703125,0.9589512944221497,0.9508709907531738,0.2201392948627472
1790964444507118800,5.570118896484375,1.109413743019104,0.6273946762084961,-0.02779807522892952
1790964444517130800,5.580130859375,1.3985263109207153,0.20566554367542267,-0.524520754814148
1790964444527144000,5.59014404296875,1.7841253280639648,-0.018793394789099693,-0.7930794954299927
1790964444537155800,5.60015576171875,1.8953131437301636,0.2159229815006256,-0.47282880544662476
1790964444547168000,5.61016796875,1.626975178718567,0.5316495299339294,0.01082734763622284
1790964444557181000,5.620180908203125,1.0663185119628906,0.6095418930053711,0.44392019510269165
1790964444567193000,5.630193115234375,0.5508953928947449,0.4236420691013336,0.5061396360397339
1790964444577206000,5.6402060546875,0.287177175283432,0.09449747949838638,0.4275617301464081
1790964444587218000,5.650218017578125,0.1642720252275467,-0.03386928513646126,0.3025074005126953
1790964444597230000,5.66022998046875,0.11638599634170532,-0.08408132195472717,0.14596706628799438
1790964444607242800,5.67024267578125,0.013638580217957497,0.016519054770469666,0.08281552046537399
1790964444617255000,5.6802548828125,-0.055995360016822815,0.06665012985467911,0.06619446724653244
1790964444627267800,5.690267822265625,0.10517728328704834,-0.011115501634776592,0.05852775648236275
1790964444637280000,5.700280029296875,0.5904627442359924,-0.2499382048845291,-0.005044559482485056
1790964444647292000,5.7102919921875,0.9772557616233826,-0.3788208067417145,0.004650145769119263
1790964444657305000,5.72030517578125,1.0167616605758667,-0.16791044175624847,0.13434608280658722
1790964444667317000,5.73031689453125,0.9253981113433838,0.0435008704662323,0.3530861437320709
1790964444677330000,5.740329833984375,0.8708786964416504,0.1290658414363861,0.5071345567703247
1790964444687341800,5.750341796875,0.9551099538803101,0.13108371198177338,0.49368003010749817
1790964444697353700,5.760353759765625,1.1590415239334106,0.21507954597473145,0.40585723519325256
1790964444707367000,5.770366943359375,1.4389674663543701,0.3849860429763794,0.302375853061676
1790964444717378800,5.78037890625,1.56055748462677,0.5364687442779541,0.27081817388534546
1790964444727392000,5.79039208984375,1.4695618152618408,0.5025861859321594,0.29772382974624634
1790964444737404000,5.80040380859375,1.2120240926742554,0.3720569312572479,0.2642521560192108
1790964444747417000,5.8104169921875,0.8571431636810303,0.2893223464488983,0.1364462524652481
1790964444757429000,5.820428955078125,0.5069297552108765,0.012104866094887257,-0.13201715052127838
1790964444767441200,5.830441162109375,0.277614563703537,-0.06764988601207733,-0.46571603417396545
1790964444777453800,5.840453857421875,0.32123687863349915,-0.20341411232948303,-0.7662913203239441
1790964444787466000,5.850466064453125,0.6026690602302551,-0.44592633843421936,-0.9262506365776062
1790964444797479000,5.86047900390625,0.9073157906532288,-0.5153597593307495,-0.8694608211517334
1790964444807490800,5.87049072265625,1.0840873718261719,-0.4250735342502594,-0.5566645860671997
1790964444817503000,5.8805029296875,1.095739722251892,-0.21747346222400665,0.005544701125472784
1790964444827516000,5.890515869140625,0.9775382876396179,-0.12454112619161606,0.590202271938324
1790964444837528000,5.900528076171875,0.8154149055480957,-0.1850028783082962,0.7343653440475464
1790964444847540700,5.910540771484375,0.5303104519844055,-0.21782873570919037,0.616792619228363
1790964444857553000,5.920552978515625,0.17623281478881836,-0.1129092425107956,0.45201539993286133
1790964444867564800,5.930564697265625,-0.1624501645565033,-0.0651896521449089,0.2673552632331848
1790964444877578000,5.940577880859375,-0.39502933621406555,-0.05212152376770973,0.1777641326189041
1790964444887590000,5.95058984375,-0.4958353042602539,0.00017204020696226507,0.09382157027721405
1790964444897603000,5.96060302734375,-0.4713989496231079,-0.010005496442317963,-0.022237660363316536
1790964444907615000,5.970614990234375,-0.39753618836402893,-0.03466636687517166,-0.11872531473636627
1790964444917627000,5.980626953125,-0.2971957325935364,-0.07542018592357635,-0.1844279021024704
1790964444927640000,5.99064013671875,-0.22071214020252228,-0.06914284825325012,-0.34083110094070435
1790964444937652000,6.00065185546875,-0.2317938208580017,-0.13858264684677124,-0.558888852596283
1790964444947665000,6.010664794921875,-0.3770311772823334,-0.21002380549907684,-0.7769298553466797
1790964444957676800,6.0206767578125,-0.6382129788398743,-0.24007146060466766,-0.8071689605712891
1790964444967689000,6.03068896484375,-0.7848354578018188,-0.15106327831745148,-0.7695699334144592
1790964444977702000,6.040701904296875,-0.8477720618247986,-0.08670560270547867,-0.7709132432937622
1790964444987714000,6.050714111328125,-0.8338280320167542,-0.13790114223957062,-0.7098684906959534
1790964444997727000,6.06072705078125,-0.8102968335151672,-0.198244109749794,-0.5140465497970581
1790964445007739000,6.07073876953125,-0.724463939666748,-0.1675378680229187,-0.2620401382446289
1790964445017751000,6.0807509765625,-0.583103358745575,-0.21640527248382568,-0.06750154495239258
1790964445027764000,6.090763916015625,-0.4482662081718445,-0.3797750174999237,0.09184496849775314
1790964445037776000,6.10077587890625,-0.32596319913864136,-0.6188454031944275,0.17771007120609283
1790964445047788800,6.110788818359375,-0.1801556497812271,-0.6192046403884888,0.2099716067314148
1790964445057801000,6.120801025390625,-0.0255690086632967,-0.5828618407249451,0.180891752243042
1790964445067814000,6.13081396484375,0.055081628262996674,-0.42807918787002563,0.02713521383702755
1790964445077826000,6.140825927734375,0.3383921682834625,-0.20506712794303894,-0.25825950503349304
1790964445087838000,6.150837890625,0.5276699662208557,0.03883608058094978,-0.5760574340820312
1790964445097851100,6.16085107421875,0.5724334120750427,-0.08735913783311844,-0.8277434706687927
1790964445107863000,6.170863037109375,0.551186740398407,-0.41400089859962463,-0.8363766670227051
1790964445117876000,6.1808759765625,0.4794933497905731,-0.810096025466919,-0.5189757943153381
1790964445127888000,6.190887939453125,0.40151548385620117,0.4514918327331543,-0.16107170283794403
1790964445137899800,6.200899658203125,0.28515052795410156,0.03976818546652794,0.6787436008453369
1790964445147913000,6.210912841796875,-0.028841767460107803,-0.05520040541887283,0.9280397295951843
1790964445157924900,6.2209248046875,-0.2038777619600296,-0.2774640917778015,0.22611409425735474
1790964445167938000,6.23093798828125,-0.09547938406467438,-0.13763828575611115,-0.37991032004356384
1790964445177950000,6.240949951171875,0.21627824008464813,-0.013835920952260494,-0.657439112663269
1790964445187961900,6.2509619140625,0.406238317489624,0.18802262842655182,-0.845716118812561
1790964445197975000,6.26097509765625,0.27122431993484497,0.28347060084342957,-0.7991312742233276
1790964445207987000,6.270987060546875,0.03626852482557297,0.3226235806941986,-0.6018733382225037
1790964445218000000,6.280999755859375,-0.131390780210495,0.29846125841140747,-0.48342952132225037
1790964445228011800,6.29101171875,-0.22705206274986267,0.14692926406860352,-0.45525699853897095
1790964445238024000,6.30102392578125,-0.24472320079803467,-0.06793218106031418,-0.47759851813316345
1790964445248036900,6.311036865234375,-0.24019289016723633,-0.17254407703876495,-0.5151309967041016
1790964445258049000,6.321049072265625,-0.25112810730934143,-0.18976940214633942,-0.5395069122314453
1790964445268062000,6.33106201171875,-0.18769186735153198,-0.3633726239204407,-0.47064101696014404
1790964445278074000,6.34107421875,-0.11108257621526718,-0.31777796149253845,-0.4446493685245514
1790964445288086800,6.351086669921875,-0.09085027873516083,-0.34118661284446716,-0.3931736648082733
1790964445298099000,6.361098876953125,-0.012026036158204079,-0.45063668489456177,-0.36349138617515564
1790964445308110800,6.37111083984375,0.12818646430969238,-0.18644550442695618,-0.4027911126613617
1790964445318123800,6.381123779296875,0.16098834574222565,-0.1217605248093605,-0.3840310275554657
1790964445328136000,6.391135986328125,0.0756169930100441,-0.1726551353931427,-0.24122805893421173
1790964445338148900,6.40114892578125,0.06943260133266449,-0.15372590720653534,0.012829512357711792
1790964445348161000,6.4111611328125,0.02117532677948475,-0.1074787899851799,0.1762634515762329
1790964445358173000,6.4211728515625,-0.01643543131649494,-0.12935665249824524,0.2118624597787857
1790964445368186000,6.43118603515625,0.12723039090633392,-0.1643173098564148,0.11515641957521439
1790964445378198000,6.441197998046875,0.3233514428138733,-0.1330307573080063,-0.1369437426328659
1790964445388210700,6.451210693359375,0.3607901334762573,-0.0587376169860363,-0.365368127822876
1790964445398222800,6.461222900390625,0.2891252934932709,-0.1766405552625656,-0.42097440361976624
1790964445408234800,6.47123486328125,0.19137661159038544,-0.21831369400024414,-0.3307608664035797
1790964445418248000,6.481248046875,0.17325833439826965,-0.1583973616361618,-0.17131343483924866
1790964445428259800,6.491259765625,0.25149720907211304,-0.14368419349193573,-0.03990001231431961
1790964445438273000,6.50127294921875,0.32978910207748413,-0.16146080195903778,0.017076188698410988
1790964445448285000,6.511284912109375,0.3215644359588623,-0.1035357117652893,-0.007546599488705397
1790964445458296800,6.521296875,0.35010260343551636,-0.1413174420595169,-0.018794726580381393
1790964445468309800,6.531309814453125,0.293643593788147,-0.10512828081846237,0.08885157853364944
1790964445478321700,6.54132177734375,0.1592772752046585,0.048891641199588776,0.2766214609146118
1790964445488334800,6.5513349609375,-0.06072326749563217,0.04647242650389671,0.3649508059024811
1790964445498346800,6.5613466796875,-0.22633007168769836,0.03497183322906494,0.3460215926170349
1790964445508360000,6.57135986328125,-0.21401242911815643,0.05162777379155159,0.2097441703081131
1790964445518371800,6.581371826171875,-0.07768493890762329,0.0267178975045681,0.011268367059528828
1790964445528383700,6.5913837890625,0.10995420068502426,0.011362376622855663,-0.4371648132801056
1790964445538397000,6.60139697265625,0.3321813941001892,0.16904202103614807,-0.806489884853363
1790964445548408800,6.611408935546875,0.5570635199546814,0.17121276259422302,-0.8478718996047974
1790964445558421800,6.621421875,0.3400249481201172,0.3421829044818878,-0.5739423632621765
1790964445568433700,6.63143359375,-0.10609713941812515,0.04025714099407196,-0.3702470362186432
1790964445578445800,6.64144580078125,-0.25861984491348267,0.062192268669605255,-0.3858848512172699
1790964445588458800,6.651458740234375,-0.3659127354621887,0.22054702043533325,-0.4346952736377716
1790964445598471000,6.661470947265625,-0.36562085151672363,0.2760888338088989,-0.39380696415901184
1790964445608483800,6.67148388671875,-0.2268347442150116,0.2532977759838104,-0.3025433421134949
1790964445618496000,6.68149609375,-0.048583779484033585,0.21290934085845947,-0.16987904906272888
1790964445628508000,6.6915078125,0.050930559635162354,0.12142043560743332,-0.0070456587709486485
1790964445638520800,6.701520751953125,0.0725381150841713,0.01122149545699358,0.09141513705253601
1790964445648533000,6.711532958984375,0.14762593805789948,0.0181766077876091,0.15615472197532654
1790964445658545700,6.721545654296875,0.06954126060009003,0.029949642717838287,0.19913840293884277
1790964445668557800,6.731557861328125,-0.002484729280695319,0.07535121589899063,0.21392959356307983
1790964445678569700,6.74156982421875,-0.0026551715563982725,0.04448490962386131,0.30112868547439575
1790964445688583000,6.7515830078125,0.02191035822033882,-0.07747402042150497,0.5276920795440674
1790964445698594800,6.7615947265625,0.02467445284128189,-0.19416148960590363,0.8379465937614441
1790964445708608000,6.77160791015625,0.05427335947751999,-0.2689124345779419,1.1315512657165527
1790964445718620000,6.781619873046875,0.054556187242269516,-0.33768430352211,1.2215821743011475
1790964445728632800,6.7916328125,0.03197338059544563,-0.32761648297309875,1.1001698970794678
1790964445738644700,6.801644775390625,0.04591715708374977,-0.051471445709466934,0.8131264448165894
1790964445748656600,6.81165673828125,0.13736212253570557,0.15574485063552856,0.46624627709388733
1790964445758669800,6.821669921875,0.08576470613479614,0.15206463634967804,0.21319270133972168
1790964445768681700,6.831681640625,-0.05361369252204895,0.22887419164180756,-0.04352883622050285
1790964445778695000,6.84169482421875,-0.14905552566051483,0.1078534945845604,-0.3263182044029236
1790964445788706800,6.851706787109375,-0.1785058230161667,0.0929027795791626,-0.463096022605896
1790964445798719000,6.861718994140625,-0.27975761890411377,-0.11237900704145432,-0.6302157640457153
1790964445808732000,6.87173193359375,-0.40501487255096436,-0.30982229113578796,-0.8848627209663391
1790964445818744000,6.881744140625,-0.47517159581184387,-0.7625000476837158,-1.243146300315857
1790964445828756700,6.8917568359375,-0.49864229559898376,-1.1872084140777588,-1.5404351949691772
1790964445838769000,6.901768798828125,-0.559622049331665,-1.4106884002685547,-1.6718288660049438
1790964445848780800,6.91178076171875,-0.5876821279525757,-1.4927691221237183,-1.6907626390457153
1790964445858793700,6.921793701171875,-0.5870712399482727,-1.4203606843948364,-1.6950575113296509
1790964445868806000,6.931805908203125,-0.5316734910011292,-1.1519719362258911,-1.6741464138031006
1790964445878818800,6.94181884765625,-0.4278631806373596,-0.7767868041992188,-1.4984155893325806
1790964445888831000,6.9518310546875,-0.2991771101951599,-0.416360467672348,-1.2957141399383545
1790964445898843600,6.96184375,-0.26876941323280334,-0.30743691325187683,-1.0726627111434937
1790964445908855800,6.971855712890625,-0.24700525403022766,-0.09412729740142822,-0.8286460041999817
1790964445918867700,6.98186767578125,-0.21330668032169342,0.10067201405763626,-0.5914920568466187
1790964445928881000,6.991880859375,-0.21151703596115112,0.19792640209197998,-0.342881441116333
1790964445938892800,7.001892822265625,-0.2564474940299988,0.13695386052131653,-0.1860705316066742
1790964445948906000,7.011906005859375,-0.3657281696796417,-0.016986440867185593,-0.08231697976589203
1790964445958918000,7.02191796875,-0.35615918040275574,-0.014819426462054253,-0.07085233181715012
1790964445968929800,7.0319296875,-0.22093930840492249,0.254149466753006,-0.027087809517979622
1790964445978943000,7.04194287109375,-0.19216784834861755,0.38888490200042725,0.13602574169635773
1790964445988955000,7.051954833984375,-0.13878504931926727,0.46274635195732117,0.3820174038410187
1790964445998967800,7.0619677734375,-0.12659069895744324,0.5072160959243774,0.6215357184410095
1790964446008979700,7.071979736328125,-0.1829514354467392,0.19120937585830688,0.6665378212928772
1790964446018991900,7.081991943359375,-0.20620882511138916,0.11620090901851654,0.5476329922676086
1790964446029004800,7.0920048828125,-0.1880093216896057,0.19673728942871094,0.48304733633995056
1790964446039017000,7.102016845703125,-0.19923320412635803,0.2103327363729477,0.4568074941635132
1790964446049030000,7.11202978515625,-0.21503986418247223,0.2681955099105835,0.47402510046958923
1790964446059041800,7.122041748046875,-0.19883106648921967,0.20138265192508698,0.4715858995914459
1790964446069054000,7.132053955078125,-0.18230056762695312,0.09439335018396378,0.4544471204280853
1790964446079067000,7.14206689453125,-0.15253601968288422,-0.05781349912285805,0.3984523117542267
1790964446089078800,7.152078857421875,-0.13951635360717773,-0.09905494749546051,0.3616895079612732
1790964446099091700,7.162091796875,-0.12412780523300171,-0.003472495824098587,0.28997138142585754
1790964446109103900,7.172103759765625,-0.12361754477024078,0.009851032868027687,0.20802536606788635
1790964446119116800,7.18211669921875,-0.14247192442417145,-0.015387211926281452,0.13427604734897614
1790964446129129000,7.19212890625,-0.16152338683605194,0.007035272661596537,0.07514321804046631
1790964446139140900,7.202140869140625,-0.17756226658821106,0.03370816260576248,0.023027554154396057
1790964446149154000,7.212154052734375,-0.19163094460964203,0.026039589196443558,-0.031317975372076035
1790964446159166000,7.222166015625,-0.19659535586833954,0.06142181530594826,-0.08599453419446945
1790964446169179000,7.232178955078125,-0.22027111053466797,0.08518493175506592,-0.1649428755044937
1790964446179190800,7.242190673828125,-0.2434091866016388,0.08459664136171341,-0.2645008862018585
1790964446189202700,7.25220263671875,-0.25576654076576233,0.04511234909296036,-0.37594035267829895
1790964446199215900,7.2622158203125,-0.24803750216960907,0.0355854257941246,-0.4515429437160492
1790964446209227800,7.272227783203125,-0.2181539088487625,0.019513780251145363,-0.49429014325141907
1790964446219241000,7.282240966796875,-0.18938857316970825,0.03063087910413742,-0.5095857381820679
1790964446229252900,7.2922529296875,-0.15923279523849487,0.058268897235393524,-0.484613835811615
1790964446239265000,7.30226513671875,-0.09385379403829575,0.045947249978780746,-0.41621798276901245
1790964446249278000,7.31227783203125,0.027145866304636,0.026336532086133957,-0.33196383714675903
1790964446259289900,7.322289794921875,0.16365204751491547,0.015002651140093803,-0.20120981335639954
1790964446269302800,7.332302734375,0.2840982973575592,0.050329215824604034,-0.038782283663749695
1790964446279314700,7.342314697265625,0.40310803055763245,0.14372360706329346,0.1248955950140953
1790964446289327900,7.352327880859375,0.5135560035705566,0.2860429286956787,0.2837590277194977
1790964446299339800,7.36233984375,0.628140389919281,0.4692891836166382,0.45531558990478516
1790964446309352000,7.37235205078125,0.7281348705291748,0.5752555727958679,0.6492205858230591
1790964446319364900,7.38236474609375,0.8107171058654785,0.6192848086357117,0.7883191108703613
1790964446329377000,7.392376953125,0.9037767052650452,0.6210662126541138,0.8591573238372803
1790964446339389700,7.4023896484375,0.9533778429031372,0.6128990650177002,0.8813523650169373
1790964446349401900,7.41240185546875,0.9209892749786377,0.5101317167282104,0.7617753744125366
1790964446359413800,7.422413818359375,0.7675922513008118,0.35199639201164246,0.41982921957969666
1790964446369427000,7.432427001953125,0.49850887060165405,0.27751123905181885,-0.10344010591506958
1790964446379438800,7.44243896484375,0.19528640806674957,0.3324461281299591,-0.6105267405509949
1790964446389451800,7.45245166015625,-0.06961529701948166,0.3192003667354584,-0.9687256217002869
1790964446399464000,7.4624638671875,-0.26878753304481506,0.23440824449062347,-1.1433677673339844
1790964446409475800,7.472475830078125,-0.3803747594356537,0.19720467925071716,-1.1184195280075073
1790964446419489000,7.482489013671875,-0.44481900334358215,0.14002901315689087,-1.0178511142730713
1790964446429501000,7.4925009765625,-0.524143397808075,0.0865817666053772,-0.917007327079773
1790964446439513900,7.502513916015625,-0.6191260814666748,0.09728101640939713,-0.7935500741004944
1790964446449525800,7.51252587890625,-0.6819441914558411,0.09561707079410553,-0.6236806511878967
1790964446459539000,7.5225390625,-0.743215024471283,0.05434659495949745,-0.38701775670051575
1790964446469550800,7.53255078125,-0.5943341851234436,-0.011507252231240273,-0.09072963893413544
1790964446479562800,7.542562744140625,-0.3407823443412781,0.022893598303198814,0.3235304057598114
1790964446489576000,7.552575927734375,-0.10630140453577042,0.08060456812381744,0.6620184183120728
1790964446499587800,7.562587890625,0.02087865024805069,-0.014630341902375221,0.7330233454704285
1790964446509600800,7.572600830078125,0.05043920502066612,0.03869280219078064,0.6804800033569336
1790964446519612700,7.58261279296875,0.04857552424073219,0.11885421723127365,0.5532434582710266
1790964446529624800,7.592624755859375,0.0027742148377001286,0.15807299315929413,0.3853716552257538
1790964446539637800,7.6026376953125,-0.049795519560575485,0.17170864343643188,0.20629671216011047
1790964446549650000,7.61264990234375,-0.1180344969034195,0.17334382236003876,0.029282787814736366
1790964446559662800,7.622662841796875,-0.14340722560882568,0.2662956118583679,-0.15643061697483063
1790964446569675000,7.632675048828125,-0.12787726521492004,0.22120028734207153,-0.27688857913017273
1790964446579687000,7.64268701171875,-0.09130407869815826,0.22318142652511597,-0.25763019919395447
1790964446589699800,7.652699951171875,-0.05302007496356964,0.1737169325351715,-0.26473525166511536
1790964446599712000,7.6627119140625,-0.08842919766902924,0.05188530310988426,-0.3384520709514618
1790964446609724700,7.672724609375,-0.18062837421894073,-0.005825664848089218,-0.3777105510234833
1790964446619736800,7.68273681640625,-0.28215286135673523,0.03930825740098953,-0.4138014316558838
1790964446629748700,7.692748779296875,-0.3759733736515045,0.031198399141430855,-0.42781659960746765
1790964446639762000,7.702761962890625,-0.4572961926460266,-0.053651243448257446,-0.41289567947387695
1790964446649773800,7.71277392578125,-0.5258544683456421,-0.18710437417030334,-0.37759894132614136
1790964446659787000,7.722787109375,-0.5649731159210205,-0.17253288626670837,-0.22244638204574585
1790964446669799000,7.732798828125,-0.19924812018871307,0.3151465058326721,0.03550313413143158
1790964446679811800,7.742811767578125,-0.11183865368366241,0.20298907160758972,-0.016292953863739967
1790964446689823700,7.75282373046875,-0.205137699842453,0.15351712703704834,-0.05614662542939186
1790964446699836000,7.7628359375,-0.3227807283401489,0.22647735476493835,-0.12967756390571594
1790964446709848800,7.772848876953125,-0.36674630641937256,0.2300766110420227,-0.17331372201442719
1790964446719860700,7.78286083984375,-0.32501137256622314,0.23157410323619843,-0.2609761953353882
1790964446729874000,7.7928740234375,-0.07026057690382004,0.26014503836631775,-0.42924803495407104
1790964446739885800,7.8028857421875,0.4092463552951813,-0.01768418774008751,-0.4817200303077698
1790964446749898000,7.81289794921875,0.6116407513618469,-0.13650298118591309,-0.4778840243816376
1790964446759911000,7.822910888671875,0.6111297011375427,-0.12920911610126495,-0.4706801772117615
1790964446769922800,7.8329228515625,0.4517613351345062,-0.1444980651140213,-0.40184730291366577
1790964446779935700,7.842935791015625,0.22349700331687927,-0.14623311161994934,-0.2950665354728699
1790964446789947600,7.85294775390625,-0.010909639298915863,-0.1312621533870697,-0.15381112694740295
1790964446799959800,7.862959716796875,-0.15349555015563965,-0.1285925954580307,0.02756611444056034
1790964446809972700,7.87297265625,-0.13638579845428467,-0.13687503337860107,0.13320200145244598
1790964446819985000,7.88298486328125,-0.07827509939670563,-0.15067313611507416,0.13654665648937225
1790964446829997800,7.892997802734375,-0.07178177684545517,-0.147809699177742,0.06797745078802109
1790964446840010000,7.903010009765625,-0.08335720747709274,-0.1510281264781952,0.004480768460780382
1790964446850023000,7.91302294921875,-0.0865362212061882,-0.1525155007839203,-0.014103568159043789
1790964446860034800,7.923034912109375,-0.08931735903024673,-0.148031547665596,0.00037763622822239995
1790964446870047000,7.933046875,-0.098421111702919,-0.13915123045444489,0.010018013417720795
1790964446880060000,7.943059814453125,-0.1029474213719368,-0.12853001058101654,0.01324256882071495
1790964446890071800,7.95307177734375,-0.09951779991388321,-0.12112455815076828,0.01792520470917225
1790964446900084700,7.963084716796875,-0.09794813394546509,-0.11131507158279419,0.02629605308175087
1790964446910097000,7.973096923828125,-0.10276126861572266,-0.10867348313331604,0.03032701276242733
1790964446920108800,7.98310888671875,-0.10137668997049332,-0.09779926389455795,0.020748421549797058
1790964446930122000,7.9931220703125,-0.0975838154554367,-0.09188731014728546,0.01407773606479168
1790964446940134000,8.0031337890625,-0.09256774932146072,-0.08639773726463318,0.009338107891380787
1790964446950146800,8.013146728515625,-0.08620625734329224,-0.07472776621580124,0.0031406658235937357
1790964446960158700,8.02315869140625,-0.07970868051052094,-0.06611936539411545,0.0006849650526419282
1790964446970170600,8.033170654296875,-0.08399716764688492,-0.05907716974616051,0.0006596649764105678
1790964446980183800,8.043183837890625,-0.08756820112466812,-0.050508446991443634,0.0037792918737977743
1790964446990195700,8.05319580078125,-0.0804639533162117,-0.03983742743730545,0.002368881832808256
1790964447000209000,8.063208984375,-0.07392748445272446,-0.03155206888914108,-0.003308977698907256
1790964447010220800,8.073220703125,-0.06887733191251755,-0.02263607084751129,-0.006387858185917139
1790964447020234000,8.08323388671875,-0.06160903722047806,-0.01577363722026348,0.0020839234348386526
1790964447030246000,8.093245849609374,-0.05468428507447243,-0.008989499881863594,0.013770407065749168
1790964447040258000,8.103258056640625,-0.046479083597660065,-0.0004340952436905354,0.019285812973976135
1790964447050270700,8.113270751953126,-0.04506175220012665,0.004180097486823797,0.00791358295828104
1790964447060283000,8.123282958984374,-0.05019525811076164,0.011954663321375847,-0.006296245381236076
1790964447070295800,8.1332958984375,-0.05169914662837982,0.015108113177120686,-0.007741010282188654
1790964447080308000,8.143307861328125,-0.05064693093299866,0.013851366937160492,0.0037883466575294733
1790964447090320000,8.15331982421875,-0.050510846078395844,0.01715288870036602,0.004590490832924843
1790964447100332800,8.163332763671875,-0.05014066398143768,0.015504923649132252,-0.008678709156811237
1790964447110345000,8.173344970703125,-0.05384805053472519,0.013115002773702145,-0.02256176806986332
1790964447120357600,8.183357666015626,-0.051905807107686996,0.010519485920667648,-0.020441625267267227
1790964447130369800,8.193369873046874,-0.04836620017886162,0.007349259220063686,-0.0029755497816950083
1790964447140382700,8.2033828125,-0.050585146993398666,0.005997438915073872,0.011592473834753036
1790964447150395000,8.213394775390626,-0.05389438942074776,-0.0004878911131527275,0.011913117952644825
1790964447160406800,8.22340673828125,-0.05487443506717682,-0.007237939164042473,-0.004880508873611689
1790964447170420000,8.233419921875,-0.05808513984084129,-0.016443954780697823,-0.021864285692572594
1790964447180432000,8.243431884765625,-0.05486191809177399,-0.027034813538193703,-0.0170932337641716
1790964447190445000,8.253445068359374,-0.048886317759752274,-0.03605787083506584,-0.011473430320620537
1790964447200457000,8.26345703125,-0.043473441153764725,-0.04514111205935478,-0.005218463949859142
1790964447210468900,8.27346875,-0.0448811873793602,-0.04965437203645706,-0.0025933862198144197
1790964447220481800,8.283481689453126,-0.04584312066435814,-0.05766249820590019,0.0009835053933784366
1790964447230493700,8.29349365234375,-0.05149008706212044,-0.057925619184970856,-0.0008042746339924634
1790964447240507000,8.3035068359375,-0.06177787855267525,-0.054371628910303116,-0.009259012527763844
1790964447250518800,8.313518798828126,-0.07372482120990753,-0.05023041367530823,-0.008627310395240784
1790964447260531000,8.323531005859374,-0.06973327696323395,-0.05104986950755119,0.006704507861286402
1790964447270544000,8.3335439453125,-0.06383597105741501,-0.055143412202596664,0.022187860682606697
1790964447280556000,8.34355615234375,-0.05841510742902756,-0.06186975911259651,0.02352689765393734
1790964447290568700,8.353568603515624,-0.04506547749042511,-0.06955697387456894,0.012206332758069038
1790964447300580900,8.363580810546875,-0.048297759145498276,-0.07292347401380539,0.004703674931079149
1790964447310592800,8.3735927734375,-0.06319734454154968,-0.0773581713438034,0.013257748447358608
1790964447320605700,8.383605712890626,-0.05722467228770256,-0.08112547546625137,0.01990792714059353
1790964447330617900,8.393617919921875,-0.06193527206778526,-0.0833502858877182,0.010611631907522678
1790964447340630800,8.403630859375,-0.07155567407608032,-0.08010788261890411,0.006198240909725428
1790964447350643000,8.413642822265626,-0.06829729676246643,-0.08145597577095032,0.01073893066495657
1790964447360656000,8.42365576171875,-0.0703660398721695,-0.09235896170139313,0.01840910129249096
1790964447370668000,8.43366796875,-0.059227105230093,-0.08524991571903229,0.01537895668298006
1790964447380680000,8.443679931640625,-0.053826212882995605,-0.09463170170783997,0.029689451679587364
1790964447390692600,8.453692626953124,-0.046598393470048904,-0.08745580911636353,0.030288396403193474
1790964447400704500,8.46370458984375,-0.03851357102394104,-0.08168554306030273,0.04290512204170227
1790964447410717700,8.4737177734375,-0.03423067554831505,-0.06481654942035675,0.059238024055957794
1790964447420729600,8.4837294921875,-0.017525997012853622,-0.0655694231390953,0.09746130555868149
1790964447430741800,8.49374169921875,-0.016523316502571106,-0.0948474183678627,0.152237206697464
1790964447440754700,8.503754638671875,-0.03322187066078186,-0.10445370525121689,0.16902603209018707
1790964447450766800,8.513766845703126,-0.04592568054795265,-0.10759437084197998,0.12289982289075851
1790964447460779800,8.52377978515625,-0.05760790407657623,-0.0827619880437851,0.05248264968395233
1790964447470792000,8.5337919921875,-0.04801280051469803,-0.03633430600166321,0.028660940006375313
1790964447480803800,8.543803955078126,-0.03988376632332802,-0.006960970349609852,0.0567421093583107
1790964447490816800,8.553816650390624,-0.04448171332478523,-0.02883271314203739,0.06756093353033066
1790964447500828700,8.56382861328125,-0.06329188495874405,-0.0617416612803936,0.019510583952069283
1790964447510841600,8.573841552734375,-0.057680871337652206,-0.049078330397605896,-0.04108564928174019
1790964447520853800,8.583853759765624,-0.039984699338674545,-0.04945490136742592,-0.03423360362648964
1790964447530866700,8.59386669921875,-0.03725922107696533,-0.07175328582525253,0.006158027332276106
1790964447540878800,8.60387890625,-0.04593073949217796,-0.0671691820025444,0.0015140071045607328
1790964447550890800,8.613890869140626,-0.041492849588394165,-0.06730127334594727,-0.018788069486618042
1790964447560903700,8.623903564453125,-0.02376551739871502,-0.06257443130016327,-0.03176937997341156
1790964447570915600,8.63391552734375,-0.00007456851017195731,-0.052322592586278915,-0.017604559659957886
1790964447580928800,8.6439287109375,0.004151601810008287,-0.043586891144514084,0.00878230668604374
1790964447590940700,8.653940673828124,0.007134075742214918,-0.044866807758808136,0.00678253872320056
1790964447600952600,8.66395263671875,0.013395167887210846,-0.0353982038795948,-0.012199674732983112
1790964447610965800,8.6739658203125,0.011089934967458248,-0.029336316511034966,-0.02676849626004696
1790964447620977700,8.683977783203124,-0.0033899378031492233,-0.019293537363409996,-0.01655394211411476
1790964447630990800,8.693990966796875,-0.015439143404364586,-0.023141272366046906,0.008614260703325272
1790964447641002800,8.704002685546875,-0.008712531067430973,-0.024229971691966057,0.004860535264015198
1790964447651015000,8.714014892578126,-0.004948419518768787,-0.01986398547887802,-0.02514716424047947
1790964447661027600,8.724027587890625,-0.007421431131660938,-0.017934525385499,-0.03821902349591255
1790964447671039700,8.734039794921875,-0.0019214707426726818,-0.015473498031497002,-0.027475565671920776
1790964447681052700,8.744052734375,0.004352404270321131,-0.01715634949505329,-0.005708752200007439
1790964447691064800,8.75406494140625,0.00098190747667104,-0.01569560542702675,-0.001970472978428006
1790964447701077800,8.764077880859375,-0.0057218014262616634,-0.011811119504272938,-0.013491573743522167
1790964447711089700,8.774089599609376,-0.005595833994448185,-0.011562912724912167,-0.022530343383550644
1790964447721101800,8.784101806640624,-0.008565790951251984,-0.016223710030317307,-0.021462414413690567
1790964447731114800,8.79411474609375,-0.009462211281061172,-0.018688732758164406,-0.025606559589505196
1790964447741126700,8.804126708984375,-0.005594236310571432,-0.012048407457768917,-0.03645148500800133
1790964447751139600,8.8141396484375,0.002124936319887638,-0.006293848622590303,-0.03327806293964386
1790964447761151700,8.82415185546875,0.005124987103044987,-0.0016695356462150812,-0.021083980798721313
1790964447771163600,8.83416357421875,0.012083028443157673,0.0006258428329601884,-0.004268248099833727
1790964447781176800,8.8441767578125,0.018443722277879715,0.008019044063985348,-0.005878395400941372
1790964447791188700,8.854188720703124,0.021131649613380432,0.011800200678408146,-0.019050389528274536
1790964447801202000,8.864201904296875,0.027834028005599976,0.014356568455696106,-0.028975991532206535
1790964447811213800,8.8742138671875,0.031031418591737747,0.020339360460639,-0.02971555106341839
1790964447821225700,8.884225830078124,0.02929770201444626,0.023741548880934715,-0.0220339298248291
1790964447831238700,8.89423876953125,0.028989840298891068,0.02708328329026699,-0.019695406779646873
1790964447841250600,8.90425048828125,0.028618860989809036,0.03343998268246651,-0.02082938142120838
1790964447851263700,8.914263671875,0.029382389038801193,0.03837002441287041,-0.02448483742773533
1790964447861275600,8.924275634765625,0.0312894806265831,0.040894437581300735,-0.02153804898262024
1790964447871288800,8.934288818359375,0.03531857579946518,0.042562905699014664,-0.017536915838718414
1790964447881300700,8.94430078125,0.04267316311597824,0.04448757320642471,-0.014461763203144073
1790964447891313000,8.95431298828125,0.04445348307490349,0.04355093836784363,-0.01064811646938324
1790964447901325800,8.964325927734375,0.04373016953468323,0.04277702420949936,-0.013941648416221142
1790964447911337700,8.974337646484376,0.044623129069805145,0.039087746292352676,-0.02358868345618248
1790964447921350700,8.9843505859375,0.043358925729990005,0.03081703372299671,-0.03310868516564369
1790964447931362600,8.994362548828125,0.0402347706258297,0.025729598477482796,-0.04134158045053482
1790964447941374700,9.004374755859375,0.039441414177417755,0.018982745707035065,-0.054968178272247314
1790964447951387600,9.0143876953125,0.04045741260051727,0.01731880195438862,-0.06797851622104645
1790964447961399800,9.02439990234375,0.03911145031452179,0.011918711476027966,-0.07233677804470062
1790964447971412700,9.034412841796875,0.04351898282766342,0.007671768311411142,-0.0670836940407753
1790964447981425000,9.0444248046875,0.07772515714168549,0.0032783513888716698,-0.02707662433385849
1790964447991436800,9.054436767578125,0.12733983993530273,-0.012149340473115444,-0.010364756919443607
1790964448001449700,9.06444970703125,0.14865578711032867,-0.02911926992237568,0.011024155654013157
1790964448011461600,9.074461669921876,0.1729763001203537,-0.04152294248342514,0.031204259023070335
1790964448021474800,9.084474853515625,0.19140830636024475,-0.037642717361450195,-0.003425357863306999
1790964448031486700,9.09448681640625,0.19123093783855438,-0.023199861869215965,-0.08672211319208145
1790964448041499600,9.104499755859376,0.19692878425121307,-0.0016580841038376093,-0.16201765835285187
1790964448051511800,9.11451171875,0.25520700216293335,-0.00364693277515471,-0.13903644680976868
1790964448061523700,9.124523681640625,0.3285834789276123,-0.009307481348514557,-0.04504843428730965
1790964448071537000,9.134536865234375,0.39925363659858704,-0.015121161937713623,0.05704597383737564
1790964448081548800,9.144548828125,0.4699310064315796,-0.02587926760315895,0.15517014265060425
1790964448091561700,9.154561767578125,0.5338074564933777,-0.026585271582007408,0.22311164438724518
1790964448101573600,9.16457373046875,0.5856139659881592,-0.02214871160686016,0.22438889741897583
1790964448111585500,9.17458544921875,0.6001191139221191,0.004777178168296814,0.12770310044288635
1790964448121598700,9.1845986328125,0.5563138127326965,0.05257372930645943,-0.01447055209428072
1790964448131610600,9.194610595703125,0.47956740856170654,0.08792319893836975,-0.09093789756298065
1790964448141623800,9.204623779296876,0.4611194133758545,0.0487787239253521,-0.06723096966743469
1790964448151635700,9.2146357421875,0.507026195526123,0.06183886528015137,-0.015149125829339027
1790964448161648600,9.224648681640625,0.5547902584075928,0.08200938254594803,0.02046159841120243
1790964448171660500,9.23466064453125,0.5342527627944946,0.12070644646883011,-0.0040887510403990746
1790964448181672700,9.244672607421874,0.4061882495880127,0.14285382628440857,-0.12496829777956009
1790964448191685600,9.254685546875,0.25721874833106995,0.16909794509410858,-0.3179393410682678
1790964448201697800,9.26469775390625,0.16627871990203857,0.18132877349853516,-0.44124504923820496
1790964448211710700,9.274710693359374,0.16272206604480743,0.1902564913034439,-0.472292959690094
1790964448221723000,9.284722900390625,0.21599754691123962,0.18095380067825317,-0.39556944370269775
1790964448231734800,9.29473486328125,0.3232899010181427,0.17346526682376862,-0.29826924204826355
1790964448241747700,9.304747802734376,0.4469798803329468,0.18909642100334167,-0.24128665030002594
1790964448251759900,9.314759765625,0.4932723045349121,0.19749149680137634,-0.24920715391635895
1790964448261772500,9.3247724609375,0.46990278363227844,0.15630944073200226,-0.2824018597602844
1790964448271784700,9.33478466796875,0.43088215589523315,0.0805683434009552,-0.23845970630645752
1790964448281796600,9.344796630859374,0.411172091960907,0.0468820221722126,-0.14843527972698212
1790964448291809800,9.354809814453125,0.3854092061519623,0.05145972967147827,-0.0993042141199112
1790964448301821700,9.36482177734375,0.314115047454834,0.08957994729280472,-0.15323562920093536
1790964448311835000,9.3748349609375,0.17299388349056244,0.12566924095153809,-0.29362815618515015
1790964448321846800,9.3848466796875,0.016258863732218742,0.13848890364170074,-0.4001045227050781
1790964448331859700,9.394859619140625,-0.04326944425702095,0.149040088057518,-0.3915954530239105
1790964448341871600,9.40487158203125,-0.046120889484882355,0.13849130272865295,-0.28070488572120667
1790964448351883800,9.4148837890625,-0.029570940881967545,0.13120941817760468,-0.17626184225082397
1790964448361896700,9.424896728515625,-0.024341026321053505,0.13083311915397644,-0.1499261111021042
1790964448371908600,9.43490869140625,-0.05130792781710625,0.12219861149787903,-0.15544365346431732
1790964448381921800,9.444921875,-0.05795251578092575,0.10204274207353592,-0.11878470331430435
1790964448391933700,9.45493359375,-0.03769225254654884,0.07387528568506241,-0.03766082599759102
1790964448401945900,9.46494580078125,-0.0172698013484478,0.05950354039669037,0.03464506193995476
1790964448411958800,9.474958740234374,-0.0054336474277079105,0.04706018790602684,0.058402322232723236
1790964448421971000,9.484970947265625,-0.007388407830148935,0.03971279039978981,0.06411373615264893
1790964448431983600,9.494983642578125,0.0011379687348380685,0.0246688611805439,0.06953753530979156
1790964448441995500,9.50499560546875,-0.00007137271313695237,0.0157651137560606,0.056111738085746765
1790964448452008700,9.5150087890625,-0.017836520448327065,0.018642660230398178,0.0007070692372508347
1790964448462020600,9.5250205078125,-0.038553785532712936,0.018308699131011963,-0.09541094303131104
1790964448472032800,9.53503271484375,-0.06246710568666458,0.009346896782517433,-0.20028382539749146
1790964448482045700,9.545045654296874,-0.0852094367146492,-0.0021936458069831133,-0.2524535655975342
1790964448492057900,9.555057861328125,-0.10318204760551453,-0.015868179500102997,-0.22002184391021729
1790964448502070800,9.56507080078125,-0.12782268226146698,-0.03910479322075844,-0.14866510033607483
1790964448512082700,9.575082763671874,-0.15407319366931915,-0.024627048522233963,-0.04092879220843315
1790964448522094800,9.5850947265625,-0.15739761292934418,-0.04267715662717819,0.04382577911019325
1790964448532107800,9.595107666015625,-0.15233361721038818,-0.06190438196063042,0.12281167507171631
1790964448542119700,9.60511962890625,-0.173885777592659,-0.08204293996095657,0.21441908180713654
1790964448552132600,9.615132568359375,-0.20285910367965698,-0.09275470674037933,0.3014772832393646
1790964448562144800,9.625144775390625,-0.24447499215602875,-0.10462388396263123,0.36406850814819336
1790964448572157700,9.63515771484375,-0.2476542741060257,-0.11587333679199219,0.3902692198753357
1790964448582169900,9.645169921875,-0.10329575836658478,-0.11158325523138046,0.3176184296607971
1790964448592181800,9.655181640625,0.016505207866430283,-0.08134891837835312,0.13418975472450256
1790964448602194700,9.665194580078126,-0.021942317485809326,-0.06306552141904831,-0.041610825806856155
1790964448612206600,9.67520654296875,-0.074520044028759,-0.058388739824295044,-0.1127995178103447
1790964448622219800,9.6852197265625,-0.05272925645112991,-0.0749267041683197,-0.06085003539919853
1790964448632231700,9.695231689453125,-0.062670037150383,-0.08141230046749115,0.019572369754314423
1790964448642243600,9.70524365234375,-0.09714013338088989,-0.08897008746862411,0.0557335689663887
1790964448652256800,9.7152568359375,-0.07942371815443039,-0.07792169600725174,0.02821805514395237
1790964448662268700,9.7252685546875,-0.06362185627222061,-0.08581956475973129,-0.005233910400420427
1790964448672281900,9.73528173828125,-0.07685643434524536,-0.08079364895820618,-0.010232663713395596
1790964448682293800,9.745293701171875,-0.06695772707462311,-0.0848216786980629,0.009438509121537209
1790964448692306700,9.755306640625,-0.07032343000173569,-0.09041032195091248,0.018694326281547546
1790964448702318600,9.765318603515626,-0.08824437111616135,-0.08267676830291748,0.00023276027059182525
1790964448712330800,9.775330810546874,-0.07568410784006119,-0.0828581303358078,-0.004942294210195541
1790964448722343700,9.78534375,-0.08531436324119568,-0.08130338042974472,0.008698949590325356
1790964448732355800,9.79535595703125,-0.0821681097149849,-0.08974026888608932,0.014451110735535622
1790964448742368800,9.80536865234375,-0.07646175473928452,-0.09868982434272766,0.008168980479240417
1790964448752380700,9.815380615234375,-0.07942212373018265,-0.10996271669864655,0.005022721830755472
1790964448762392800,9.825392822265625,-0.07468728721141815,-0.11448343843221664,0.009527192451059818
1790964448772405500,9.835405517578126,-0.07522284984588623,-0.11700305342674255,0.013255084864795208
1790964448782417700,9.845417724609375,-0.08028019219636917,-0.12056955695152283,0.011510981246829033
1790964448792430600,9.8554306640625,-0.08075796067714691,-0.12412753701210022,0.007869641296565533
1790964448802442800,9.86544287109375,-0.08088872581720352,-0.12677524983882904,0.010570619255304337
1790964448812455700,9.87545556640625,-0.0795249193906784,-0.12994813919067383,0.010716826654970646
1790964448822467800,9.8854677734375,-0.07545401155948639,-0.1310940980911255,0.009652094915509224
1790964448832479700,9.895479736328125,-0.07216048240661621,-0.13276736438274384,0.009476859122514725
1790964448842493000,9.905492919921874,-0.06994206458330154,-0.13633014261722565,0.011751730926334858
1790964448852504800,9.9155048828125,-0.06710793077945709,-0.13849370181560516,0.012495552189648151
1790964448862517800,9.925517822265626,-0.06359575688838959,-0.13950063288211823,0.010731207206845284
1790964448872529700,9.93552978515625,-0.06319734454154968,-0.1403973251581192,0.00746084563434124
1790964448882542600,9.94554248046875,-0.06120876222848892,-0.139423668384552,0.009139702655375004
1790964448892554800,9.9555546875,-0.05748220160603523,-0.13641856610774994,0.011743208393454552
1790964448902566700,9.965566650390626,-0.053275737911462784,-0.13432158529758453,0.007544469088315964
1790964448912579800,9.975579833984375,-0.045392781496047974,-0.12915346026420593,0.007244064472615719
1790964448922591700,9.985591796875,-0.041180990636348724,-0.1273542195558548,0.005082376766949892
1790964448932604700,9.995604736328126,-0.04045581445097923,-0.12253337353467941,0.0059990365989506245
1790964448942616600,10.005616455078124,-0.03536118566989899,-0.1161218136548996,0.007111172657459974
1790964448952628700,10.015628662109375,-0.03230361267924309,-0.11062637716531754,0.00506985979154706
1790964448962641700,10.0256416015625,-0.025657160207629204,-0.10337352752685547,0.002767290687188506
1790964448972653600,10.035653564453124,-0.02130342461168766,-0.09920354932546616,0.003626426449045539
1790964448982666800,10.045666748046875,-0.01757473312318325,-0.09376271069049835,0.0005845638806931674
1790964448992678700,10.0556787109375,-0.012444152496755123,-0.0857391357421875,-0.000003462109361862531
1790964449002691800,10.06569189453125,-0.007963384501636028,-0.07346276193857193,-0.0008490157779306173
1790964449012703700,10.075703857421875,-0.0009267800487577915,-0.06329800933599472,-0.002403769176453352
1790964449022716000,10.0857158203125,0.004913798533380032,-0.0507153756916523,-0.00592659879475832
1790964449032728600,10.095728515625,0.009996441192924976,-0.03880971297621727,-0.005565740168094635
1790964449042740700,10.10574072265625,0.01636086404323578,-0.026621490716934204,-0.0057345847599208355
1790964449052753700,10.115753662109375,0.020898623391985893,-0.012090218253433704,-0.009009207598865032
1790964449062765800,10.125765869140626,0.029747508466243744,0.002031459240242839,-0.011083011515438557
1790964449072777700,10.13577783203125,0.03434758633375168,0.016104668378829956,-0.011957593262195587
1790964449082790700,10.145790771484375,0.03852049261331558,0.028544027358293533,-0.013712616637349129
1790964449092802800,10.155802734375,0.043598342686891556,0.04171309247612953,-0.01774384267628193
1790964449102815700,10.165815673828124,0.046665772795677185,0.054498929530382156,-0.018727082759141922
1790964449112828000,10.175827880859375,0.05240355432033539,0.06980038434267044,-0.02040407434105873
1790964449122840600,10.185840576171875,0.056120261549949646,0.08101283013820648,-0.02231995202600956
1790964449132852700,10.195852783203126,0.059048671275377274,0.09056159108877182,-0.024764468893408775
1790964449142864600,10.20586474609375,0.06148839369416237,0.10188375413417816,-0.027545075863599777
1790964449152877800,10.2158779296875,0.06261438131332397,0.10950732231140137,-0.02604704722762108
1790964449162889700,10.2258896484375,0.06483066082000732,0.11831226199865341,-0.024411333724856377
1790964449172903000,10.23590283203125,0.06431187689304352,0.1217687800526619,-0.023133547976613045
1790964449182914800,10.245914794921875,0.06442612409591675,0.12611213326454163,-0.022604910656809807
1790964449192927700,10.255927734375,0.06483971327543259,0.1274556964635849,-0.02106400579214096
1790964449202939600,10.265939697265624,0.06589805334806442,0.12746661901474,-0.017720140516757965
1790964449212951600,10.27595166015625,0.06430734694004059,0.1272524893283844,-0.01631425879895687
1790964449222964700,10.28596484375,0.06495316326618195,0.13038118183612823,-0.0199835617095232
1790964449232976600,10.2959765625,0.062486015260219574,0.13317270576953888,-0.021865084767341614
1790964449242989800,10.30598974609375,0.05959329009056091,0.13582174479961395,-0.022005965933203697
1790964449253001700,10.316001708984375,0.06120077148079872,0.13604944944381714,-0.021575599908828735
1790964449263014000,10.326013916015626,0.058515239506959915,0.13508139550685883,-0.02165522798895836
1790964449273026800,10.33602685546875,0.05444193631410599,0.13591203093528748,-0.033302031457424164
1790964449283038700,10.346038818359375,0.05711548402905464,0.1358899176120758,-0.01655074767768383
1790964449293051600,10.3560517578125,0.04433577135205269,0.14289429783821106,-0.03225167840719223
1790964449303063600,10.3660634765625,0.051721516996622086,0.14323624968528748,-0.027295537292957306
1790964449313076700,10.37607666015625,0.06125536933541298,0.16305257380008698,-0.020744426175951958
1790964449323088600,10.386088623046875,0.046793073415756226,0.15454643964767456,-0.02351997420191765
1790964449333100800,10.396100830078124,0.04633793607354164,0.1731717884540558,-0.03524560481309891
1790964449343113700,10.40611376953125,0.04680159315466881,0.13521774113178253,-0.013177321292459965
1790964449353126000,10.4161259765625,0.03130678832530975,0.14657452702522278,-0.028187962248921394
1790964449363138600,10.426138671875,0.04087446257472038,0.13180063664913177,-0.016802947968244553
1790964449373150700,10.436150634765625,0.03675215691328049,0.12992018461227417,-0.029259352013468742
1790964449383163600,10.44616357421875,0.02387816831469536,0.12057941406965256,0.02448856458067894
1790964449393176300,10.45617626953125,0.009883789345622063,0.12522555887699127,-0.04610864073038101
1790964449403188200,10.466188232421874,0.023058980703353882,0.1050340086221695,-0.02064642310142517
1790964449413201400,10.476201416015625,-0.0065500447526574135,0.10909559577703476,-0.01116290595382452
1790964449423213300,10.48621337890625,-0.007582818623632193,0.1057373508810997,0.0049409628845751286
1790964449433226000,10.49622607421875,-0.001612544059753418,0.1256793588399887,-0.03163755312561989
1790964449443238100,10.506238037109375,-0.024767398834228516,0.10165099054574966,0.0016788567882031202
1790964449453250000,10.51625,-0.035827506333589554,0.1082788035273552,-0.018664231523871422
1790964449463263200,10.52626318359375,-0.016215721145272255,0.06735800206661224,-0.02653041109442711
1790964449473275100,10.536275146484375,-0.042447324842214584,0.06691831350326538,-0.014170147478580475
1790964449483288300,10.546288330078125,-0.021826468408107758,0.05378706380724907,0.022912772372364998
1790964449493300200,10.55630029296875,-0.034500185400247574,0.05336016044020653,-0.004228300880640745
1790964449503313400,10.5663134765625,-0.03364451229572296,0.0629081279039383,-0.02455780655145645
1790964449513325300,10.5763251953125,-0.015365640632808208,0.05770990252494812,0.0028517129831016064
1790964449523337200,10.586337158203126,-0.015686551108956337,0.05329597741365433,0.024353010579943657
1790964449533350100,10.59635009765625,-0.024164725095033646,0.03201412409543991,-0.004037618637084961
1790964449543362000,10.606362060546875,-0.05070525407791138,0.0003094593121204525,-0.036738306283950806
1790964449553375200,10.616375244140626,-0.061525944620370865,-0.03175446763634682,-0.01161644235253334
1790964449563387100,10.62638720703125,-0.058334413915872574,-0.062256716191768646,0.04767271503806114
1790964449573400300,10.636400390625,-0.05692639946937561,-0.07427822798490524,0.043126430362463
1790964449583412200,10.646412109375,-0.04930443316698074,-0.09529855847358704,-0.016652213409543037
1790964449593424400,10.65642431640625,-0.04647429287433624,-0.11141999810934067,-0.04424016550183296
1790964449603437300,10.666437255859375,-0.06058132275938988,-0.13397563993930817,0.01565565913915634
1790964449613449200,10.67644921875,-0.06738569587469101,-0.13184404373168945,0.06607116013765335
1790964449623462100,10.686462158203126,-0.049259692430496216,-0.13213352859020233,0.028130704537034035
1790964449633474000,10.69647412109375,-0.03665335103869438,-0.11814794689416885,-0.03954501077532768
1790964449643486200,10.706486328125,-0.029827404767274857,-0.14418832957744598,-0.01293337531387806
1790964449653499100,10.7164990234375,-0.04752783849835396,-0.16305017471313477,0.036681316792964935
1790964449663511300,10.72651123046875,-0.050036802887916565,-0.1686398833990097,0.024886706843972206
1790964449673524200,10.736524169921875,-0.03911544382572174,-0.16646701097488403,-0.0017803232185542583
1790964449683536400,10.746536376953125,-0.0379021093249321,-0.16147145628929138,-0.005118595436215401
1790964449693549000,10.756549072265624,-0.024924524128437042,-0.1657484918832779,0.017066068947315216
1790964449703561200,10.766561279296875,-0.015745406970381737,-0.16749659180641174,0.020650416612625122
1790964449713573000,10.776572998046875,-0.000919323181733489,-0.16618551313877106,-0.0014495585346594453
1790964449723586300,10.78658642578125,0.014288658276200294,-0.15673235058784485,-0.01744263991713524
1790964449733598200,10.79659814453125,0.02533784694969654,-0.13970090448856354,-0.0006157228490337729
1790964449743611400,10.806611328125,0.04170723259449005,-0.13521480560302734,0.01751108281314373
1790964449753623300,10.816623291015626,0.05053454637527466,-0.13299986720085144,-0.004466920159757137
1790964449763636200,10.82663623046875,0.05686914175748825,-0.13165922462940216,-0.02359960228204727
1790964449773648400,10.8366484375,0.06550124287605286,-0.12989142537117004,-0.011203385889530182
1790964449783660300,10.846660400390626,0.07633817940950394,-0.12329556792974472,0.008648082613945007
1790964449793673200,10.856673095703124,0.09036318212747574,-0.11730079352855682,-0.006291984114795923
1790964449803685000,10.86668505859375,0.10554853081703186,-0.11307115852832794,-0.029936326667666435
1790964449813698300,10.8766982421875,0.12230034917593002,-0.12017913907766342,-0.020485034212470055
1790964449823710200,10.886710205078124,0.14012621343135834,-0.12520186603069305,-0.0028461201582103968
1790964449833723400,10.896723388671875,0.1532691866159439,-0.119230255484581,-0.003774764481931925
1790964449843735300,10.9067353515625,0.16394659876823425,-0.10504492372274399,-0.0332021601498127
1790964449853747200,10.916747314453126,0.17116668820381165,-0.10011222213506699,-0.03904034197330475
1790964449863760100,10.926760009765625,0.17804643511772156,-0.10300787538290024,-0.027690216898918152
1790964449873772000,10.93677197265625,0.17821314930915833,-0.12282179296016693,0.011114169843494892
1790964449883785200,10.94678515625,0.2061137557029724,-0.10936537384986877,-0.03527063876390457
1790964449893797000,10.956797119140624,0.2247292548418045,-0.10585825890302658,-0.04327423870563507
1790964449903810300,10.966810302734375,0.22223439812660217,-0.09458243101835251,-0.03858121484518051
1790964449913822200,10.976822265625,0.27155429124832153,-0.095320925116539,-0.03335662558674812
1790964449923834400,10.98683447265625,0.24760952591896057,-0.10493600368499756,-0.015142734162509441
1790964449933847300,10.996847412109375,0.2604108154773712,-0.09845919162034988,-0.027534687891602516
1790964449943859500,11.006859375,0.29778748750686646,-0.10986577719449997,-0.0406251922249794
1790964449953872100,11.0168720703125,0.26682716608047485,-0.09609111398458481,-0.042093124240636826
1790964449963884000,11.026884033203125,0.2640974223613739,-0.09798941016197205,0.0051721250638365746
1790964449973896200,11.036896240234375,0.24244646728038788,-0.09617633372545242,-0.01079965103417635
1790964449983909000,11.0469091796875,0.23209209740161896,-0.07889721542596817,-0.056347429752349854
1790964449993921300,11.05692138671875,0.2506415545940399,-0.07445399463176727,-0.026993267238140106
1790964450003934200,11.066934326171875,0.26345667243003845,-0.0700930655002594,-0.009373794309794903
1790964450013946400,11.0769462890625,0.28951969742774963,-0.06481574475765228,-0.03638517111539841
1790964450023959000,11.086958984375,0.2968449890613556,-0.05867929384112358,-0.04758642613887787
1790964450033971200,11.09697119140625,0.3094675838947296,-0.047930240631103516,-0.03525199741125107
1790964450043983000,11.106983154296875,0.32637226581573486,-0.03754471242427826,-0.01677844673395157
1790964450053996300,11.116996337890624,0.3142436742782593,-0.02485448308289051,-0.025237446650862694
1790964450064008200,11.12700830078125,0.31657129526138306,-0.02003788948059082,-0.04007205367088318
1790964450074021400,11.137021484375,0.30104878544807434,-0.019571570679545403,-0.05566299706697464
1790964450084033300,11.147033203125,0.28514838218688965,-0.030407173559069633,-0.04256477206945419
1790964450094046200,11.157046142578125,0.27831125259399414,-0.038974829018116,-0.027089940384030342
1790964450104058400,11.167058349609375,0.28108012676239014,-0.025589516386389732,-0.03422774374485016
1790964450114070300,11.1770703125,0.2890392541885376,-0.008071241900324821,-0.03880172595381737
1790964450124083200,11.187083251953124,0.3061860203742981,0.029327528551220894,-0.04068990424275398
1790964450134095000,11.19709521484375,0.3167891204357147,0.07277913391590118,-0.05296068638563156
1790964450144108300,11.2071083984375,0.3236643373966217,0.11521154642105103,-0.0693841353058815
1790964450154120200,11.2171201171875,0.33139070868492126,0.15100762248039246,-0.06595584750175476
1790964450164133400,11.22713330078125,0.33738788962364197,0.17105136811733246,-0.04397092014551163
1790964450174145300,11.237145263671875,0.33790189027786255,0.17091715335845947,-0.041186586022377014
1790964450184157200,11.2471572265625,0.3296290338039398,0.16251115500926971,-0.06123912334442139
1790964450194170000,11.257170166015625,0.3073602020740509,0.15182600915431976,-0.06841287761926651
1790964450204182300,11.267182373046875,0.28480803966522217,0.15719841420650482,-0.04284573346376419
1790964450214195200,11.2771953125,0.2750603258609772,0.18140174448490143,-0.0330362468957901
1790964450224207000,11.28720703125,0.27153003215789795,0.21063978970050812,-0.05775411054491997
1790964450234220300,11.29722021484375,0.27351996302604675,0.2248094081878662,-0.0787225067615509
1790964450244232200,11.307232177734376,0.2621285617351532,0.2229883372783661,-0.07085499912500381
1790964450254244400,11.317244384765624,0.24566355347633362,0.21768970787525177,-0.04374907910823822
1790964450264257300,11.32725732421875,0.22589410841464996,0.20641548931598663,-0.033730797469615936
1790964450274269400,11.33726953125,0.20924057066440582,0.1878194361925125,-0.038304246962070465
1790964450284282000,11.3472822265625,0.19457587599754333,0.16784439980983734,-0.04830654710531235
1790964450294294000,11.3572939453125,0.18028216063976288,0.1460655927658081,-0.04459197074174881
1790964450304307200,11.36730712890625,0.1705232709646225,0.12680001556873322,-0.031182952225208282
1790964450314319000,11.377319091796876,0.16103069484233856,0.11407357454299927,-0.02876506932079792
1790964450324331300,11.387331298828125,0.15657469630241394,0.10757599771022797,-0.03479260206222534
1790964450334344200,11.39734423828125,0.1535850316286087,0.09352009743452072,-0.037214744836091995
1790964450344356400,11.4073564453125,0.13917067646980286,0.06707996875047684,-0.02846013754606247
1790964450354369300,11.417369384765625,0.11575029790401459,0.04362257942557335,-0.024570057168602943
1790964450364381400,11.42738134765625,0.09964030981063843,0.024775654077529907,-0.02593679167330265
1790964450374393300,11.437393310546875,0.08909392356872559,0.01883760280907154,-0.03311001509428024
1790964450384406300,11.44740625,0.08445869386196136,0.020971860736608505,-0.031249532476067543
1790964450394418200,11.457418212890625,0.08843905478715897,0.009357016533613205,-0.01811428926885128
1790964450404431400,11.467431396484375,0.08136596530675888,-0.0003110571997240186,-0.018455173820257187
1790964450414443300,11.477443359375,0.08508773148059845,-0.012307798489928246,-0.024099742993712425
1790964450424456400,11.48745654296875,0.08893360197544098,-0.018139589577913284,-0.02293301187455654
1790964450434468400,11.49746826171875,0.0872422307729721,-0.019176891073584557,-0.02484702691435814
1790964450444480500,11.50748046875,0.09455793350934982,-0.007284810766577721,-0.02773495763540268
1790964450454493200,11.5174931640625,0.0946093276143074,0.005850698333233595,-0.024949291720986366
1790964450464505000,11.527505126953125,0.09133577346801758,0.032106801867485046,-0.028840968385338783
1790964450474518300,11.537518310546876,0.09973938018083572,0.059361062943935394,-0.033238645642995834
1790964450484530200,11.5475302734375,0.10334157198667526,0.08395801484584808,-0.029449502006173134
1790964450494543400,11.55754345703125,0.1173814907670021,0.10278470069169998,-0.03820810467004776
1790964450504555300,11.56755517578125,0.13938932120800018,0.11778388917446136,-0.03775323927402496
1790964450514567400,11.5775673828125,0.14871330559253693,0.12828339636325836,-0.04412218555808067
1790964450524580400,11.587580322265625,0.16429519653320312,0.14322559535503387,-0.05796343460679054
1790964450534592500,11.597592529296875,0.16703905165195465,0.15940430760383606,-0.06033684313297272
1790964450544605200,11.607605224609374,0.1655721813440323,0.1831812709569931,-0.049013350158929825
1790964450554617300,11.617617431640625,0.1887398213148117,0.19957968592643738,0.006425941362977028
1790964450564630300,11.62763037109375,0.1720156967639923,0.21601831912994385,-0.01744876429438591
1790964450574642400,11.637642333984376,0.18574030697345734,0.23234616219997406,-0.08745022118091583
1790964450584654300,11.647654296875,0.1977977603673935,0.21381855010986328,-0.05955706909298897
1790964450594667300,11.657667236328125,0.16992858052253723,0.1925625205039978,-0.017299627885222435
1790964450604679400,11.667679443359376,0.17132169008255005,0.1989637017250061,-0.05834666267037392
1790964450614692000,11.677692138671874,0.1789628267288208,0.20099781453609467,-0.04986928775906563
1790964450624704300,11.687704345703125,0.1689874231815338,0.21257005631923676,-0.03345116600394249
1790964450634717200,11.69771728515625,0.1818920373916626,0.21327579021453857,-0.015216503292322159
1790964450644729300,11.707729248046874,0.17409935593605042,0.1900825947523117,-0.0070943948812782764
1790964450654741200,11.7177412109375,0.1529163122177124,0.16475193202495575,-0.04428597167134285
1790964450664754400,11.72775439453125,0.13770513236522675,0.1257246434688568,-0.0456087626516819
1790964450674766300,11.737766357421876,0.10645054280757904,0.10342572629451752,-0.0263647623360157
1790964450684779500,11.747779541015625,0.0932316780090332,0.08523020893335342,0.01252005249261856
1790964450694791400,11.75779150390625,0.08692345023155212,0.06419096887111664,0.02749500796198845
1790964450704804400,11.767804443359376,0.07623112201690674,0.04723755270242691,-0.012485431507229805
1790964450714816300,11.777816162109374,0.06721605360507965,0.02250264585018158,-0.05182085186243057
1790964450724828200,11.787828125,0.05564861372113228,0.0005853627808392048,-0.02942553348839283
1790964450734841300,11.79784130859375,0.03385863080620766,-0.016695355996489525,0.036807283759117126
1790964450744853200,11.807853271484374,0.017401626333594322,-0.021230187267065048,0.048945438116788864
1790964450754866400,11.817866455078125,0.012261992320418358,-0.03304450213909149,0.027418041601777077
1790964450764878300,11.82787841796875,-0.0033430662006139755,-0.06029875949025154,0.007489341776818037
1790964450774891300,11.837891357421874,-0.019303390756249428,-0.09287108480930328,-0.019643209874629974
1790964450784903200,11.847903076171875,-0.022305306047201157,-0.10721726715564728,-0.05185946822166443
1790964450794915000,11.8579150390625,-0.025355158373713493,-0.12111417204141617,-0.01907489076256752
1790964450804928300,11.86792822265625,-0.026700586080551147,-0.11853623390197754,0.017836786806583405
1790964450814940200,11.877940185546874,-0.012483567930758,-0.10058093816041946,-0.017842380329966545
1790964450824953300,11.887953369140625,-0.006954045966267586,-0.0921938419342041,-0.019749470055103302
1790964450834965200,11.89796533203125,-0.012624981813132763,-0.0821787565946579,0.03931012004613876
1790964450844978400,11.907978515625,-0.021159879863262177,-0.05349491536617279,0.028616730123758316
1790964450854990300,11.917990234375,-0.014490259811282158,-0.006131662055850029,-0.03442535176873207
1790964450865002500,11.92800244140625,-0.001064998097717762,0.028490763157606125,-0.041127994656562805
1790964450875015200,11.93801513671875,0.010369550436735153,0.042032670229673386,-0.031980302184820175
1790964450885027300,11.94802734375,0.03291480615735054,0.04144091531634331,-0.0008868326549418271
1790964450895040300,11.958040283203125,0.03278591111302376,0.05338279902935028,-0.018062356859445572
1790964450905052400,11.968052490234374,0.046837545931339264,0.08609972894191742,-0.060320597141981125
1790964450915065300,11.9780654296875,0.03196405991911888,0.12089366465806961,-0.07030612230300903
1790964450925077200,11.9880771484375,0.023937823250889778,0.16697220504283905,-0.09843841940164566
1790964450935089400,11.99808935546875,0.051730040460824966,0.19560198485851288,-0.09978518635034561
1790964450945102300,12.008102294921875,0.09708526730537415,0.2142273336648941,-0.059124041348695755
1790964450955114200,12.0181142578125,0.14027614891529083,0.23857049643993378,-0.03105432167649269
1790964450965127200,12.028127197265626,0.16968730092048645,0.27559030055999756,-0.038729019463062286
1790964450975139300,12.038139404296874,0.16420145332813263,0.30900871753692627,-0.04270698502659798
1790964450985152300,12.04815234375,0.1355418562889099,0.3369857370853424,0.00881852488964796
1790964450995164400,12.058164306640625,0.12091763317584991,0.31327295303344727,0.11140908300876617
1790964451005176300,12.06817626953125,0.05483075976371765,0.2636204659938812,0.06226417422294617
1790964451015189500,12.078189453125,-0.014536598697304726,0.23709005117416382,-0.09946586936712265
1790964451025201400,12.088201416015625,-0.015349661000072956,0.13752377033233643,-0.0828179195523262
1790964451035214300,12.09821435546875,-0.06323915719985962,0.04742184281349182,0.018306303769350052
1790964451045226200,12.108226318359375,-0.10079265385866165,-0.01625327207148075,0.10067441314458847
1790964451055239200,12.1182392578125,-0.08826647698879242,-0.07503429800271988,0.10020089894533157
1790964451065251300,12.128251220703126,-0.07058309018611908,-0.10584121197462082,-0.009336776100099087
1790964451075263200,12.13826318359375,-0.032158736139535904,-0.137594074010849,-0.05283445119857788
1790964451085276400,12.1482763671875,0.008009190671145916,-0.16870273649692535,-0.0013670006301254034
1790964451095288300,12.158288330078125,0.017195232212543488,-0.186886265873909,0.04865941405296326
1790964451105301500,12.168301513671874,-0.00723634148016572,-0.17712843418121338,0.0013693973887711763
1790964451115313400,12.1783134765625,-0.02991608716547489,-0.1431470364332199,-0.06728609651327133
1790964451125326300,12.188326416015625,-0.0418877936899662,-0.10719835758209229,-0.040646228939294815
1790964451135338200,12.198338134765624,-0.0325680635869503,-0.07414480298757553,-0.006725014187395573
1790964451145350100,12.20835009765625,-0.0008202536264434457,-0.05062323063611984,-0.008204666897654533
1790964451155363300,12.21836328125,0.02389414794743061,-0.021826734766364098,-0.02906920202076435
1790964451165375200,12.228375244140626,0.047640491276979446,0.020173445343971252,-0.06565544009208679
1790964451175388400,12.238388427734375,0.08133480697870255,0.06805628538131714,-0.08240991830825806
1790964451185400300,12.248400390625,0.10561138391494751,0.1270788609981537,-0.08214280754327774
1790964451195413200,12.258413330078126,0.08907714486122131,0.19021441042423248,-0.0806511715054512
1790964451205425200,12.268425048828124,0.05213324353098869,0.25158455967903137,-0.0825076624751091
1790964451215437300,12.278437255859375,0.024870729073882103,0.3213077187538147,-0.0932934582233429
1790964451225450200,12.2884501953125,0.018871426582336426,0.3705778121948242,-0.0884808599948883
1790964451235462400,12.29846240234375,0.017972875386476517,0.3823348581790924,-0.08155184984207153
1790964451245475300,12.308475341796875,0.004993427079170942,0.35797226428985596,-0.05568217113614082
1790964451255487200,12.3184873046875,-0.0220914538949728,0.3037034273147583,-0.002144909929484129
