time,seconds_elapsed,z,y,x
1790690954607457800,0.057457763671875,9.127295278930664,2.3485621910095213,-0.4095581214904785
1790690954617496000,0.06749609375,9.100959060668945,2.3904607200622556,0.08678981018066406
1790690954627534800,0.077534912109375,9.13627353515625,2.6913819412231446,0.08978256225585937
1790690954637573000,0.087572998046875,9.09766703338623,3.0068180099487303,-0.3827729904174804
1790690954647611000,0.09761083984375,9.003544980621337,3.0877719535827635,-0.5599439132690429
1790690954657649000,0.10764892578125,8.829067534637451,3.240851222229004,-0.5897217964172363
1790690954667687000,0.11768701171875,9.11098478012085,2.9996354049682616,-0.28161797027587887
1790690954677725000,0.127724853515625,9.101407973480224,2.721608737182617,-0.21877017669677734
1790690954687763000,0.137762939453125,8.32613554840088,2.600252640533447,-0.2856581855773926
1790690954697801000,0.147801025390625,8.263587030029296,2.565387078857422,-0.08364742050170898
1790690954707839000,0.1578388671875,8.60580822982788,2.7064953392028808,-0.23687632675170897
1790690954717877000,0.167876953125,9.035118515014648,2.9530981101989746,-0.5331587821960448
1790690954727914800,0.177914794921875,9.471461767578125,3.21780703125,-0.7076362281799315
1790690954737953000,0.187953125,9.86366192703247,3.1268273681640624,-0.8716390419006347
1790690954747990800,0.19799072265625,9.695020347595214,3.073855656433105,-1.2023381462097167
1790690954758029000,0.208029052734375,9.470264666748045,2.8330887519836425,-1.0908581314086914
1790690954768066800,0.21806689453125,9.345167630004882,2.673575066375732,-0.9958382530212402
1790690954778105000,0.22810498046875,9.356240812683104,2.7359739471435547,-1.0372878692626952
1790690954788142800,0.238142822265625,9.514856672668456,2.7448025657653807,-1.0666168395996094
1790690954798180900,0.248180908203125,9.599102643585205,2.6975170829772948,-1.2009914077758788
1790690954808219000,0.258218994140625,9.676465284729003,2.7967268142700195,-1.3581108917236326
1790690954818258000,0.2682578125,9.922319867706298,2.798372827911377,-1.2913725204467772
1790690954828296000,0.2782958984375,10.102633180236817,2.9008745864868164,-1.3507786491394043
1790690954838334000,0.288333984375,10.3169142288208,3.115005997467041,-1.6084546028137205
1790690954848372000,0.2983720703125,10.234613546752929,3.3475428337097166,-1.7597382202148437
1790690954858410000,0.308409912109375,9.793182615661621,3.389441362762451,-1.656039360809326
1790690954868448000,0.318447998046875,9.854534033203125,3.254617881774902,-1.5857096870422362
1790690954878486000,0.328486083984375,9.908702845764159,3.276464971923828,-1.8363526733398436
1790690954888523800,0.338523681640625,9.80635072479248,3.2447417999267576,-2.0822072563171385
1790690954898562000,0.34856201171875,9.791386964416503,3.2410008598327633,-2.1583727966308595
1790690954908599800,0.358599853515625,9.900921690368651,3.30070626373291,-2.0232500404357907
1790690954918638000,0.36863818359375,9.957933617401123,3.494337322998047,-1.8025345748901367
1790690954928675800,0.37867578125,9.857077872467041,3.7728129035949705,-1.6686089195251463
1790690954938713900,0.3887138671875,9.663746088409424,3.799897309875488,-1.41093296585083
1790690954948752000,0.398751953125,9.71686743774414,3.9209541313171385,-1.5897499023437498
1790690954958790000,0.408789794921875,9.83882208480835,4.093187013244629,-1.9764134704589842
1790690954968828000,0.418827880859375,9.819219558715819,4.066401882171631,-2.042104378509521
1790690954978866000,0.428865966796875,9.598653730773925,4.329165514373779,-2.247856083679199
1790690954988904000,0.438904052734375,9.32152488861084,4.585644367218017,-2.272097375488281
1790690954998942000,0.44894189453125,9.143905052947998,4.756979423522949,-1.9696797782897948
1790690955008981000,0.45898095703125,8.940697187042236,5.347748683166504,-1.6992846282958984
1790690955019019000,0.46901904296875,8.718784620666504,5.9187657791137696,-1.7634791603088378
1790690955029057000,0.47905712890625,8.742427362060546,6.673986765289306,-1.4317325927734375
1790690955039095000,0.489094970703125,8.652944075012206,7.813028205108642,-0.6561608924865723
1790690955049133000,0.499133056640625,7.992443692016601,8.131457025909423,-0.1949777976989746
1790690955059171000,0.509171142578125,7.554753701019287,7.401973707580566,-0.51714755859375
1790690955069209000,0.519208984375,7.252186466217041,7.391349437713623,-0.45400048980712887
1790690955079247000,0.5292470703125,7.174674187469482,7.326257080078125,-0.27787703018188475
1790690955089285000,0.53928515625,7.095515895080566,7.289146954345703,-0.09756371765136718
1790690955099323100,0.5493232421875,7.172728898620605,7.479186711120605,-0.09427169036865234
1790690955109361000,0.55936083984375,7.414393628692626,7.570316011810302,-0.24555530776977538
1790690955119399200,0.569399169921875,7.518990313720702,7.32296505279541,-0.3253121505737305
1790690955129437000,0.57943701171875,7.739256866455078,7.184699906921386,-0.6114192489624023
1790690955139475200,0.58947509765625,7.921665105438232,7.23348176574707,-0.873434693145752
1790690955149513000,0.599512939453125,8.075492562103271,7.219565468597412,-1.1140519599914551
1790690955159551200,0.60955126953125,8.141333107757568,7.174674187469482,-1.2253823371887207
1790690955169589000,0.619589111328125,8.208520391845703,7.299172673797607,-1.3536217636108399
1790690955179627000,0.629626953125,8.231564582824706,7.3463085189819335,-1.3160627250671386
1790690955189665000,0.6396650390625,8.258499351501465,7.359626265716552,-1.3236942428588867
1790690955199703800,0.649703857421875,8.204779451751708,7.320870126342773,-1.4226046989440917
1790690955209742000,0.6597421875,8.112303412628174,7.15058253326416,-1.3220482292175293
1790690955219780000,0.669780029296875,7.746439471435546,6.986280444335937,-1.1691185981750487
1790690955229818000,0.679818115234375,7.4764932342529296,6.995408338165283,-1.1616367179870606
1790690955239856000,0.689856201171875,7.383867557525634,7.049277875518799,-1.2885294059753418
1790690955249894100,0.69989404296875,7.046883673858642,7.1124249443054195,-1.5529390518188475
1790690955259932200,0.70993212890625,6.751499044036865,7.158812601470947,-1.8146552207946776
1790690955269970000,0.719969970703125,6.4746694770812985,7.022941657257079,-1.865382368469238
1790690955280008200,0.73000830078125,6.1626750732421876,6.96488226699829,-1.8525135345458983
1790690955290046000,0.7400458984375,5.878064350891113,6.934356195831298,-1.8032827629089354
1790690955300084200,0.750084228515625,5.584625009918213,6.885574337005615,-1.7431284461975096
1790690955310122000,0.7601220703125,5.292083494567871,6.725911013793945,-1.6935983993530273
1790690955320160000,0.770159912109375,4.87145219039917,6.4555158638000485,-1.656039360809326
1790690955330198000,0.780197998046875,4.454112913513184,6.194398245239258,-1.6304513305664061
1790690955340236000,0.790236083984375,4.0060979278564455,6.147561675262451,-1.6888099960327148
1790690955350274000,0.800274169921875,3.8899791473388667,6.190956580352783,-1.7453730102539062
1790690955360312000,0.81031201171875,3.822342950439453,6.291213774871826,-1.7597382202148437
1790690955370350000,0.82035009765625,3.7312136497497557,6.176591370391845,-1.6946458625793457
1790690955380388000,0.83038818359375,3.533542375183105,5.9874494392395015,-1.6543933471679686
1790690955390427100,0.84042724609375,3.4479496658325193,5.970690027618408,-1.7489643127441405
1790690955400465000,0.85046484375,3.385401147460937,5.952134964752197,-1.6826748542785643
1790690955410503000,0.8605029296875,3.2722751190185546,5.754014777374267,-1.3322235862731933
1790690955420541000,0.870541015625,3.2788591735839843,5.62457825012207,-1.0699088668823242
1790690955430579000,0.880578857421875,3.492990584564209,5.6483706291198725,-1.0905588562011719
1790690955440617000,0.890616943359375,3.8066310020446776,5.721842692565918,-1.0670657524108886
1790690955450655000,0.900655029296875,4.059368914794922,5.874473048400879,-0.8563760063171386
1790690955460693200,0.910693359375,4.169951103973388,6.0802247535705565,-0.7383119369506835
1790690955470731000,0.92073095703125,4.268113372039795,6.563554213714599,-0.8460510116577148
1790690955480769000,0.93076904296875,4.459799142456054,6.606200930786132,-0.21682488784790038
1790690955490807000,0.94080712890625,4.307019149017334,6.6896987136840815,0.1767220100402832
1790690955500845000,0.950844970703125,4.241328240966797,6.798036338806152,0.7251438278198242
1790690955510883000,0.960883056640625,4.011933794403076,6.308721374511719,1.0712556053161622
1790690955520921000,0.970921142578125,3.7913679664611815,6.04550882949829,1.4712369201660156
1790690955530959000,0.980958984375,3.914968627166748,6.471676725006103,1.6123451805114746
1790690955540997000,0.9909970703125,4.067898258209229,6.451326010894775,1.698835715484619
1790690955551035000,1.001034912109375,4.266766633605957,6.608894407653808,1.532887612915039
1790690955561073200,1.0110732421875,4.633229125213623,7.0658876495361325,1.3756184913635252
1790690955571111000,1.02111083984375,4.508730638885498,7.261314360046386,1.4305354919433593
1790690955581150000,1.03114990234375,4.34158543548584,7.53978994064331,1.561618032836914
1790690955591188000,1.04118798828125,4.30896443786621,7.747935847473144,2.120813758087158
1790690955601226000,1.05122607421875,4.368370566558838,7.7790604690551755,2.490568276977539
1790690955611264000,1.061263916015625,4.758026886749267,7.848043404388427,2.4914661026000977
1790690955621302000,1.071302001953125,5.271732780456543,8.145672598266602,2.2493524597167966
1790690955631340000,1.081340087890625,5.544222856903076,8.20418090133667,1.9913772308349609
1790690955641378000,1.0913779296875,5.655253958892822,8.351873216247558,1.7380407676696776
1790690955651416000,1.101416015625,5.705382556152343,8.467393446350098,1.7738041549682617
1790690955661454000,1.1114541015625,5.646275702667236,8.392724282073974,1.9514239906311035
1790690955671492000,1.1214921875,5.680093801116943,8.441506140899659,2.0965724662780763
1790690955681530000,1.131530029296875,5.7706245513916015,8.606855693054198,2.1986253120422363
1790690955691568000,1.141568115234375,5.721992330169678,8.541464060211181,2.1040543464660644
1790690955701606100,1.151606201171875,5.4884080307006835,8.246977256011963,1.763329522705078
1790690955711644000,1.161643798828125,5.041141233062744,7.970596601867675,1.4387655601501463
1790690955721682200,1.17168212890625,4.7469537040710446,7.716362313079833,1.483806478881836
1790690955731720000,1.181719970703125,4.7201685729980465,7.596053679656982,1.5837643981933593
1790690955741758200,1.19175830078125,4.826111996459961,7.797765169525146,1.7114052742004393
1790690955751796000,1.2017958984375,5.023184720611572,8.180837435150146,2.016067435455322
1790690955761834200,1.211834228515625,5.191676662445068,8.526051387023925,2.402282090759277
1790690955771873000,1.221873046875,5.493346071624756,8.629600608825683,2.6318261749267577
1790690955781911000,1.2319111328125,5.4887073059082025,8.071452346801758,2.5112182662963867
1790690955791949000,1.241948974609375,5.187337171936035,8.475324239349364,2.863914098358154
1790690955801986800,1.25198681640625,4.605845443725586,8.683769421386717,3.2686838165283203
1790690955812025000,1.262025146484375,4.20721086730957,8.683021233367919,3.5426702690124507
1790690955822062800,1.272062744140625,4.369268392181397,8.659228854370117,3.6138977684020994
1790690955832101000,1.28210107421875,4.81399135055542,8.335263442230223,3.444508000946045
1790690955842139000,1.292138916015625,4.846612348175048,8.26119282836914,3.6008792968749996
1790690955852177200,1.30217724609375,4.639962817382812,8.410680794525145,3.838204536437988
1790690955862215200,1.312215087890625,4.538358884429932,8.61284119720459,3.9043443572998044
1790690955872253000,1.3222529296875,4.573673358917236,8.66371798248291,3.819799111175537
1790690955882291200,1.332291259765625,4.525041137695312,8.737190045928955,4.091391361999512
1790690955892329000,1.342328857421875,4.719719660186767,8.752153806304932,4.0255508163452145
1790690955902367200,1.3523671875,4.75623123550415,8.724321212005615,4.084358394622803
1790690955912405000,1.362405029296875,4.758625437164306,8.834903401184082,4.0717888359069825
1790690955922443000,1.372443115234375,4.98622423248291,9.16814634475708,4.0924388252258295
1790690955932481000,1.38248095703125,5.211279188537597,9.500940375518798,4.151396041107177
1790690955942519000,1.39251904296875,5.36929649810791,9.69756418685913,4.2034699272155756
1790690955952557000,1.40255712890625,5.29926609954834,9.95239702606201,4.1481040138244625
1790690955962595000,1.412594970703125,5.068824189758301,10.262595778656005,4.063708405303955
1790690955972634000,1.422634033203125,4.892850367736816,10.47597900161743,3.944297597503662
1790690955982672000,1.432671875,4.60315196685791,10.428394243621826,3.8521208335876462
1790690955992710100,1.442710205078125,4.138527207183838,10.248529843902586,3.765031748199463
1790690956002748000,1.452747802734375,3.712359311676025,10.175357055664062,3.647865504455566
1790690956012786000,1.462785888671875,3.226635649871826,10.097545501708984,4.059967465209961
1790690956022824200,1.47282421875,2.686593537902832,9.939228916931151,4.740369649505615
1790690956032862500,1.482862548828125,2.2397756530761717,9.714922148895264,5.1425955284118645
1790690956042900200,1.492900146484375,2.052579010772705,9.37868645324707,5.062090497589111
1790690956052938500,1.5029384765625,1.8505682456970214,8.872612077331542,4.693233804321289
1790690956062976300,1.512976318359375,1.4992191520690916,8.302193531799317,4.348319127655029
1790690956073014500,1.5230146484375,1.7181389663696287,7.855226009368896,4.054580511474609
1790690956083052300,1.53305224609375,1.3711293632507324,7.83981333618164,3.872022634887695
1790690956093090300,1.54309033203125,1.2274772636413573,8.449885846710204,3.2104747886657714
1790690956103128300,1.55312841796875,1.4104840530395506,8.513781103515624,3.218854494476318
1790690956113166300,1.563166259765625,0.7447463539123534,8.270619997406005,3.8036382499694823
1790690956123204400,1.573204345703125,0.09202712631225586,8.067861044311522,4.527435339355469
1790690956133242400,1.583242431640625,-0.21921908950805663,7.906252432250976,5.029319862365722
1790690956143280400,1.5932802734375,-0.35090018081665036,7.872583971405029,5.08199229888916
1790690956153319400,1.6033193359375,-0.08589198455810547,7.7973162567138665,5.007323134613037
1790690956163357400,1.613357421875,0.0757166275024414,7.93588067779541,4.764610941314697
1790690956173395500,1.6233955078125,0.07915829238891602,8.092551248931885,4.365976364898682
1790690956183433200,1.63343310546875,0.27084406280517576,7.944260383605957,4.022707701873779
1790690956193471500,1.643471435546875,0.3721487205505371,8.142380570983887,3.74767378616333
1790690956203509200,1.65350927734375,0.49739539489746093,8.429535132598877,3.9917327178955078
1790690956213547500,1.663547607421875,0.6932710182189941,8.353818505096434,4.186411240386962
1790690956223585300,1.673585205078125,0.7739256866455078,8.207323291015625,4.187309066009521
1790690956233623600,1.68362353515625,0.42886137237548827,7.996034994506836,4.157381545257568
1790690956243661300,1.693661376953125,0.12180500946044921,8.188917865753174,5.993734218597412
1790690956253699300,1.70369921875,0.8262988479614257,8.510339438629149,4.072237748718261
1790690956263737300,1.7137373046875,1.3407529296874998,9.680056587219237,3.968389251708984
1790690956273775400,1.723775390625,1.3256395317077636,10.415375772094725,4.208407968139648
1790690956283813400,1.7338134765625,0.2198176399230957,14.631564895629882,6.50534518585205
1790690956293851400,1.743851318359375,-0.1183633445739746,13.231106562042235,5.757306804656982
1790690956303889400,1.753889404296875,1.1391910774230956,11.270853952789306,5.638793822479248
1790690956313927400,1.763927490234375,0.45459904022216796,9.94730934753418,4.970362646484375
1790690956323965200,1.773965087890625,1.1918635139465332,9.143306502532958,3.889829509735107
1790690956334003500,1.78400341796875,2.716521058654785,9.33379517211914,2.80929637298584
1790690956344041500,1.79404150390625,2.4717139389038083,8.935310233306884,2.7506384323120114
1790690956354080500,1.80408056640625,2.509721890258789,9.202413356018067,4.49436542892456
1790690956364118300,1.8141181640625,3.294870397186279,11.00060844039917,1.507449220275879
1790690956374156500,1.824156494140625,3.2410008598327633,10.069263994598389,0.9469067565917968
1790690956384194300,1.8341943359375,2.7742811737060546,8.355763793945313,2.709937004089355
1790690956394232600,1.844232666015625,1.7980454467773437,8.022969763183593,3.314173648071289
1790690956404270300,1.854270263671875,1.9639935493469236,9.251494490051268,1.9587562332153319
1790690956414308400,1.864308349609375,2.5671827301025387,8.571990131378174,3.211971164703369
1790690956424346400,1.874346435546875,2.7588685005187985,10.085125580596923,2.321328147125244
1790690956434384400,1.88438427734375,4.206313041687012,10.656591589355468,1.2045827102661133
1790690956444422400,1.89442236328125,5.593902541351318,10.282048667144775,1.3024457031249999
1790690956454460400,1.90446044921875,6.289268486022949,10.000131421661376,0.9849147079467773
1790690956464498400,1.91449853515625,5.3490954216003415,9.900323139953613,1.2761094848632812
1790690956474536400,1.924536376953125,4.001459162139892,9.454403080749511,2.2958897544860837
1790690956484574200,1.93457421875,2.4072201316833493,8.843432744598388,3.3467946456909177
1790690956494612500,1.944612548828125,-0.3682581428527832,6.9530608963012694,6.406584367370605
1790690956504650200,1.954650146484375,0.3232172241210937,8.438214113616944,4.768052606201172
1790690956514688500,1.9646884765625,2.3514053054809567,10.105326657104492,3.164685681915283
1790690956524726300,1.974726318359375,2.8200702804565427,9.310900618743895,5.518634826660156
1790690956534765600,1.984765625,-1.5562310791015623,8.563311150360107,5.014505739593505
1790690956544803300,1.99480322265625,3.4400188728332517,9.006537732696533,3.098994773864746
1790690956554841600,2.004841552734375,1.5096937843322753,9.070582627105713,2.6038439430236813
1790690956564879400,2.01487939453125,-1.3735235649108886,8.838494703674316,1.636287197113037
1790690956574917400,2.02491748046875,0.8032546569824218,8.839392529296875,2.079962692260742
1790690956584955400,2.034955322265625,1.790713204193115,8.863334545898438,2.6783634696960448
1790690956594993400,2.044993408203125,1.80029001083374,8.885480911254882,2.3268647384643555
1790690956605031400,2.055031494140625,2.446275546264648,8.888772938537597,1.846976943206787
1790690956615069400,2.0650693359375,2.2858640350341797,9.280224909973144,1.6454150909423828
1790690956625107200,2.075107177734375,2.3075614875793455,9.13492679672241,1.6932991241455078
1790690956635145500,2.0851455078125,2.929904281616211,9.099761959838867,1.903091044616699
1790690956645183200,2.095183349609375,3.24324542388916,8.7470661277771,1.6638205162048338
1790690956655221500,2.105221435546875,3.2353146308898926,8.690353475952149,1.4239514373779296
1790690956665259300,2.11525927734375,3.0111575004577635,8.546701376342773,1.0410288093566893
1790690956675297500,2.125297607421875,4.050091383361816,9.638906246185302,1.4312836799621582
1790690956685335300,2.135335205078125,5.458031597137451,9.4618849609375,2.201318788909912
1790690956695373300,2.145373291015625,4.369717304992675,8.590994107055664,1.157446865081787
1790690956705411300,2.155411376953125,3.6336499320983884,9.110685504913329,0.24765023422241209
1790690956715449300,2.165449462890625,4.434959300231934,9.68559317855835,-0.33399113159179683
1790690956725488400,2.17548828125,2.999934680175781,9.254187966918945,0.30735563812255856
1790690956735526400,2.1855263671875,3.493439497375488,9.591321488189697,0.48033670806884765
1790690956745564400,2.195564453125,4.741716387939453,9.952247388458252,-0.5861304939270019
1790690956755602400,2.2056025390625,6.515969455718993,9.323769452667236,-2.0944775398254394
1790690956765640400,2.215640380859375,7.433397604370117,10.243142890167237,-3.5413235305786133
1790690956775678500,2.225678466796875,3.0832828254699707,10.651503910827635,-1.7823334983825683
1790690956785716200,2.23571630859375,4.43690458908081,9.025092795562744,-1.5593734687805174
1790690956795754500,2.24575439453125,3.247136001586914,10.613944872283936,-1.638831036376953
1790690956805792300,2.255792236328125,3.7861306503295897,9.41729295501709,0.3808277015686035
1790690956815830500,2.26583056640625,5.378574029541015,9.272892667388916,1.1046247909545899
1790690956825868300,2.275868408203125,3.0397382827758785,9.709086282348633,0.8502408645629882
1790690956835906600,2.285906494140625,3.9839515624999997,9.291447730255127,1.82587804107666
1790690956845944300,2.2959443359375,3.229778039550781,8.832209924316405,0.9454103805541991
1790690956855982300,2.305982421875,3.808725928497314,8.903287786102295,1.7992425476074219
1790690956866020400,2.316020263671875,5.155314724731445,8.655487914276122,3.118298024749756
1790690956876058400,2.326058349609375,3.9166146408081053,8.855703028106689,1.6986860778808592
1790690956886096400,2.336096435546875,3.3283892204284666,9.7170170753479,0.609025047302246
1790690956896134400,2.346134521484375,4.859181906890869,8.838494703674316,1.4987702392578124
1790690956906172400,2.35617236328125,3.6551977470397947,8.92543415145874,0.7454945419311523
1790690956916211500,2.36621142578125,3.4714427696228025,9.445275186920165,0.891241567993164
1790690956926249500,2.37624951171875,3.583521334838867,9.675118546295165,0.6664858871459961
1790690956936287500,2.38628759765625,3.7214872055053707,8.89969648361206,1.5177742149353026
1790690956946325200,2.3963251953125,3.688866207885742,8.699930282592772,1.9547160179138183
1790690956956363500,2.406363525390625,3.1292215698242187,9.02763663482666,2.0011036750793454
1790690956966401300,2.4164013671875,3.10273571395874,9.041852207183837,2.17707749710083
1790690956976439600,2.426439453125,2.7581203125,8.877550118255614,2.0884920356750487
1790690956986477300,2.436477294921875,2.5751135231018063,8.143727309417724,3.4433109001159665
1790690956996515600,2.446515625,2.8905495918273925,7.175422375488281,3.8524201087951657
1790690957006553300,2.45655322265625,2.8719945289611815,9.043198945617675,2.161066273498535
1790690957016590800,2.4665908203125,3.365200070953369,8.761431337738037,3.277811710357666
1790690957026628900,2.47662890625,3.7199908294677733,8.268525070953368,4.169951103973388
1790690957036667000,2.4866669921875,5.281159949493408,7.005434057617187,5.700444515228271
1790690957046705000,2.496704833984375,1.9882348411560058,7.5534069625854485,3.390937738800049
1790690957056743000,2.506742919921875,2.032677209472656,8.471134386444092,4.689941777038574
1790690957066781000,2.516781005859375,2.264465857696533,8.188618590545653,3.976020769500732
1790690957076819000,2.52681884765625,2.4048259300231933,8.596231423187255,2.227505369567871
1790690957086857000,2.53685693359375,2.4525603256225583,8.346186987304687,4.3077673370361325
1790690957096896000,2.54689599609375,1.2431892120361328,7.762450695037841,4.7095443031311035
1790690957106933800,2.556933837890625,0.9765350021362305,8.102128055572509,4.329315151977539
1790690957116972000,2.566971923828125,1.5939397552490233,8.170063527679442,4.742314938354492
1790690957127009800,2.577009765625,1.9048866958618162,8.24173993988037,4.537610696411132
1790690957137048000,2.587048095703125,2.016665985870361,8.342296409606933,4.254496350097656
1790690957147085800,2.5970859375,2.5617957763671875,8.710554552459715,3.691559684753418
1790690957157123800,2.607123779296875,3.6424785507202144,9.178920252227783,3.2046389221191403
1790690957167161900,2.617161865234375,4.177432984161377,9.247304637145996,3.273023307037353
1790690957177199900,2.627199951171875,4.298938718414306,9.141211576080321,3.115005997467041
1790690957187238000,2.63723779296875,4.251353960418701,8.708609263610839,2.57286895904541
1790690957197276000,2.64727587890625,3.0966005722045895,9.093477180480956,1.4327800559997559
1790690957207314000,2.65731396484375,1.6349404586791991,8.928127628326415,2.270301724243164
1790690957217352000,2.66735205078125,1.9059341590881347,8.712350203704833,2.0400094520568848
1790690957227389700,2.6773896484375,3.0775965965270995,8.598027074432373,1.7871219017028808
1790690957237428000,2.687427978515625,2.5315689804077146,8.71399621734619,1.7968483459472655
1790690957247465700,2.6974658203125,4.3914147575378415,9.609726913452148,1.220743571472168
1790690957257504000,2.70750390625,9.490316105651855,10.319308430480957,-1.1876736610412597
1790690957267541800,2.717541748046875,4.562001625823974,9.42267990875244,-0.5026327110290527
1790690957277581000,2.7275810546875,2.2245126174926755,9.867253229522705,1.1294646331787108
1790690957287618800,2.737618896484375,3.9778164207458495,8.965985942077635,2.0925322509765625
1790690957297657000,2.747656982421875,3.4310406166076657,9.036614891052245,2.233191598510742
1790690957307694800,2.75769482421875,3.672256433868408,8.917652996063232,2.91119958114624
1790690957317732900,2.76773291015625,3.5965398063659664,8.629002058410643,3.346645008087158
1790690957327771000,2.77777099609375,3.4153286682128905,9.029881198883055,3.1639374938964844
1790690957337809000,2.787808837890625,3.6391865234374996,9.1163717338562,2.9152397964477537
1790690957347847000,2.797846923828125,3.197755592346191,9.044096771240234,2.684049698638916
1790690957357885000,2.807885009765625,2.801814492797851,8.965387391662597,2.520944710540771
1790690957367922700,2.817922607421875,2.862118447113037,8.876502655029297,2.3395839347839353
1790690957377961000,2.8279609375,3.109918318939209,8.613439747619628,2.2934955528259278
1790690957387998700,2.837998779296875,3.314173648071289,8.516025667572022,2.55386498336792
1790690957398037000,2.848037109375,3.227383837890625,8.602815477752685,2.451063949584961
1790690957408074800,2.85807470703125,2.9110499435424804,8.7463179397583,2.108094561767578
1790690957418113000,2.868113037109375,2.4226328048706054,8.917353720855713,1.7872715393066405
1790690957428150800,2.87815087890625,2.1957821975708005,8.989927958679198,1.528398484802246
1790690957438188800,2.888188720703125,2.062604730224609,9.037363079071044,1.259050798034668
1790690957448226800,2.898226806640625,1.8573019378662108,9.28276874923706,0.9639654434204101
1790690957458266000,2.90826611328125,1.9587562332153319,9.349806395721435,0.6218938812255859
1790690957468304000,2.918303955078125,2.2002713256835937,9.314043008422852,0.4887164138793945
1790690957478342000,2.928341796875,2.369810730743408,9.2190231300354,0.6361094535827636
1790690957488380000,2.9383798828125,3.1171009239196774,8.987384119415283,0.5832873794555664
1790690957498418000,2.94841796875,7.762600332641601,9.051578651428223,0.34281975021362304
1790690957508456000,2.9584560546875,7.093720243835449,8.201936337280273,0.9636661682128905
1790690957518494000,2.968493896484375,3.203142546081543,8.65728356552124,1.6508020446777343
1790690957528531700,2.97853173828125,1.979705497741699,9.57665700302124,1.935113491821289
1790690957538570000,2.988570068359375,2.5392004981994627,9.700257663726806,1.9660884757995605
1790690957548607700,2.998607666015625,3.7964556449890137,10.019883585357665,2.0958242782592773
1790690957558646000,3.00864599609375,3.84329221496582,9.982923097229003,2.0459949562072755
1790690957568683800,3.018683837890625,3.3816602073669433,9.727342070007323,1.8124106567382812
1790690957578722000,3.02872216796875,2.7813141410827633,9.53146644668579,1.9960159965515136
1790690957588759800,3.038759765625,2.3234230735778807,9.305214389801025,2.157325333404541
1790690957598797800,3.0487978515625,2.8293478118896482,8.996811288452149,1.846976943206787
1790690957608835800,3.0588359375,5.43977580947876,9.168445619964599,1.227626901245117
1790690957618873900,3.068873779296875,4.956745624542236,8.949226530456542,0.948103857421875
1790690957628913000,3.078912841796875,2.9701567970275877,8.824279131317137,0.6705261024475098
1790690957638951000,3.088950927734375,2.6509797882080077,8.85540375289917,0.5367500846862793
1790690957648989000,3.098989013671875,2.5453356399536133,8.700828108215331,0.7905354606628417
1790690957659027000,3.10902685546875,3.1754595893859863,8.851962088012694,0.8409633331298828
1790690957669065000,3.11906494140625,4.628141446685791,8.863484183502196,0.5443816024780274
1790690957679103000,3.12910302734375,5.085733238983154,8.668057472991944,0.5957073005676269
1790690957689140700,3.139140625,4.208856880950927,8.67015239944458,1.4229039741516112
1790690957699179000,3.149178955078125,3.49239203414917,8.417564124298096,1.6609774017333983
1790690957709216800,3.159216796875,3.376722166442871,8.417713761901854,1.80029001083374
1790690957719255000,3.169255126953125,3.5672108360290524,8.47128402404785,1.919850456237793
1790690957729292800,3.179292724609375,3.9956232955932616,8.590395556640624,1.9024924942016601
1790690957739331000,3.1893310546875,4.30312857131958,8.680178118896483,1.9645920997619628
1790690957749368800,3.199368896484375,3.796605282592773,8.539668408966063,2.005143890380859
1790690957759406800,3.20940673828125,3.7716158027648925,8.71504368057251,1.8107646430969238
1790690957769444900,3.21944482421875,5.432593204498291,9.143605777740477,1.1040262405395507
1790690957779483000,3.22948291015625,4.7393221862792965,9.541192890930175,0.8445546356201171
1790690957789521000,3.23952099609375,3.2199019577026364,9.718363813781737,1.2376526206970213
1790690957799560000,3.249559814453125,3.5148376747131347,9.789142400360106,0.6003460662841796
1790690957809598000,3.259597900390625,3.7934628929138183,9.891195246124267,0.11566986770629882
1790690957819636000,3.269635986328125,3.300107713317871,9.840617736053467,-0.09472060317993164
1790690957829674000,3.279674072265625,3.7563527671813963,9.74903952255249,-0.12734160079956053
1790690957839712000,3.2897119140625,4.097676141357422,9.203610456848144,0.2929904281616211
1790690957849749800,3.299749755859375,3.577835105895996,8.864830921936035,0.8611644096374511
1790690957859788000,3.3097880859375,3.707421270751953,8.66326906967163,0.999130280303955
1790690957869825800,3.31982568359375,4.069993184661865,8.427589843749999,1.1501146224975585
1790690957879864000,3.329864013671875,3.7796962333679196,8.458714465332031,1.3621511070251464
1790690957889901800,3.33990185546875,3.6969466384887695,8.547599201965332,1.5059528442382812
1790690957899940000,3.349940185546875,3.8226422256469723,8.681674494934082,1.5646107849121094
1790690957909977900,3.359977783203125,3.9317280387878415,8.86168853225708,1.3564648780822752
1790690957920016000,3.370015869140625,3.8946179130554195,8.779986400604248,1.0045172340393065
1790690957930054000,3.380053955078125,3.9092823982238767,8.872761714935303,1.0242693977355957
1790690957940092000,3.390091796875,3.8741175613403316,8.763975177001953,0.8934861320495605
1790690957950130000,3.4001298828125,3.953874404144287,8.727014688873291,0.5702689079284667
1790690957960168000,3.41016796875,4.4111669212341305,9.177723151397705,0.27608137893676754
1790690957970207000,3.42020703125,4.282927494812012,9.370755660247802,-0.0330699104309082
1790690957980245000,3.430244873046875,3.6803368644714354,9.556156651306152,-0.6748655929565429
1790690957990283000,3.440282958984375,3.5824738716125486,9.644442837524414,-1.012448027038574
1790690958000321000,3.450321044921875,3.8298248306274414,9.655964933013916,-1.1463736824035644
1790690958010358800,3.46035888671875,4.27754054107666,9.693523971557617,-1.25126964263916
1790690958020397600,3.4703974609375,4.2414778785705565,9.399785355377198,-0.9696516723632812
1790690958030435800,3.480435791015625,4.009689230346679,9.076568131256103,-0.29179332733154295
1790690958040473600,3.4904736328125,3.736002053070068,8.866028022766113,0.30406361083984373
1790690958050512000,3.500511962890625,3.7912183288574215,8.853907376861573,0.15128361740112303
1790690958060549600,3.510549560546875,3.895066825866699,8.93875189819336,0.10908581314086914
1790690958070587600,3.520587646484375,3.7027825050354,8.888174388122557,0.10324994659423828
1790690958080625700,3.530625732421875,4.055478337097168,9.003694618225097,-0.06554127044677734
1790690958090663700,3.54066357421875,4.441094441986084,9.21273835067749,-0.08454524612426757
1790690958100701700,3.55070166015625,4.543596200561523,9.330952057647705,-0.05731120223999023
1790690958110739700,3.56073974609375,4.7952866500854485,9.381080654907226,-0.18405425262451172
1790690958120777700,3.57077783203125,4.386626354217529,9.400683180999755,-0.3624222763061523
1790690958130815700,3.580815673828125,3.4281975021362303,9.675118546295165,-0.806995597076416
1790690958140853800,3.590853759765625,3.591152852630615,9.364770156097412,-0.49111061553955077
1790690958150892800,3.600892822265625,4.26452206954956,9.236081816864013,-0.26336218261718747
1790690958160930600,3.6109306640625,4.715080894470215,9.677662385559081,-0.5645826789855957
1790690958170968800,3.62096875,5.277119734191894,9.728539170837402,-0.14395137481689452
1790690958181006600,3.631006591796875,5.5545478515625,9.367613270568848,0.5045779998779296
1790690958191044900,3.641044921875,4.731092118072509,9.48029038619995,0.5828384666442871
1790690958201082600,3.65108251953125,4.459948780059814,9.472060317993163,0.6757634185791015
1790690958211121000,3.661120849609375,4.452167624664306,9.195380388641357,0.6153098266601562
1790690958221158700,3.67115869140625,4.14975002746582,8.59338830871582,0.5976525894165039
1790690958231196700,3.68119677734375,3.2363620941162106,8.335263442230223,1.2223895851135254
1790690958241234700,3.691234619140625,2.4390929412841795,8.101080592346191,1.9068319847106932
1790690958251272700,3.701272705078125,1.9595044212341308,8.042123376464843,2.5139117431640625
1790690958261310700,3.711310791015625,1.5197195037841795,8.323142796325683,2.3032219970703123
1790690958271348700,3.7213486328125,2.2040122657775876,8.427589843749999,1.8237831146240233
1790690958281386800,3.73138671875,3.018489743041992,8.538022395324706,1.4733318466186522
1790690958291424800,3.7414248046875,3.6427778259277344,8.858845417785645,1.049558152770996
1790690958301462500,3.751462646484375,4.045003704833984,8.695740429687499,0.3434183006286621
1790690958311500800,3.761500732421875,5.089773454284668,7.6671315414428705,-0.6679822631835937
1790690958321539600,3.77153955078125,3.741688282012939,9.081655809783935,0.32456396255493164
1790690958331577900,3.781577880859375,3.1380501884460448,9.623343935394287,1.151162085723877
1790690958341615600,3.79161572265625,4.1100960624694824,9.00818374633789,0.4970961196899414
1790690958351654000,3.80165380859375,2.877231845092773,9.381679205322266,0.14260463638305662
1790690958361691600,3.811691650390625,2.4823382087707517,9.226804285430907,0.8409633331298828
1790690958371730000,3.82172998046875,2.185457202911377,9.459041846466064,2.1556793197631836
1790690958381767700,3.831767578125,1.6048633003234862,9.571270049285888,2.784606168365478
1790690958391805700,3.8418056640625,3.1329625099182126,10.226233840942383,2.348861466217041
1790690958401843700,3.85184375,2.780565953063965,9.690381581878661,1.4758756858825683
1790690958411881700,3.8618818359375,2.248304996490478,9.134777159118652,1.337460902404785
1790690958421919700,3.871919677734375,4.519205271148682,6.548740090942382,4.375403533935547
1790690958431957800,3.881957763671875,5.89272883605957,4.950909757995605,9.082254360198974
1790690958441995500,3.89199560546875,0.8533832542419433,12.855516176605224,-0.3495534423828125
1790690958452033800,3.90203369140625,2.133084041595459,11.362881079101562,-3.049764002227783
1790690958462071600,3.912071533203125,5.041440508270264,10.344896460723877,-1.2580033348083495
1790690958472109800,3.92210986328125,5.288192916870117,8.049605256652832,1.2229881355285643
1790690958482148600,3.932148681640625,3.6625299896240233,8.23620334854126,2.1158757171630858
1790690958492187000,3.942186767578125,2.4314614234924314,8.81051247177124,1.668160006713867
1790690958502224600,3.952224609375,1.8596961395263671,9.026289896392822,1.1278186195373534
1790690958512263000,3.962262939453125,4.278438366699218,9.200468067169188,0.9894038360595703
1790690958522300700,3.97230078125,4.285321696472168,9.6917283203125,0.7055413017272949
1790690958532338700,3.982338623046875,4.133289891052246,10.034847345733642,0.7531260597229004
1790690958542376700,3.992376708984375,3.9080852973937987,9.587580548095703,0.7091326042175292
1790690958552414700,4.002414794921875,3.26239903717041,9.347262556457519,0.6717232032775878
1790690958562452700,4.01245263671875,3.066822689056396,8.808417545318603,1.417965933227539
1790690958572490800,4.02249072265625,3.775057467651367,9.396642965698241,1.4788684379577637
1790690958582528800,4.03252880859375,4.248660483551025,9.606285248565673,1.4386159225463866
1790690958592566800,4.04256689453125,4.73049356765747,9.454403080749511,0.9442132797241211
1790690958602604500,4.0526044921875,4.645200133514404,9.392752388000488,0.7996633544921875
1790690958612642800,4.062642822265625,3.8824972671508786,9.638008420562743,0.8714894042968749
1790690958622680600,4.0726806640625,3.1287726570129393,9.605836335754393,1.1646294700622557
1790690958632718800,4.08271875,2.94950680770874,10.008211852264404,1.6593313880920408
1790690958642757600,4.092757568359375,3.153313224029541,10.068066893768309,2.0546739372253415
1790690958652796000,4.1027958984375,3.2185552192687985,9.963170933532714,2.192340532684326
1790690958662833700,4.112833740234375,3.462913426208496,9.55106897277832,2.762010890197754
1790690958672872000,4.122871826171875,2.525134563446045,9.724798230743408,3.30070626373291
1790690958682909700,4.13290966796875,2.4167969383239747,9.465476263427734,2.644246096038818
1790690958692947700,4.14294775390625,1.651550232696533,8.371026829528809,1.7007810043334959
1790690958702985700,4.15298583984375,3.0461726997375487,9.076717768859863,1.3904326141357422
1790690958713023700,4.163023681640625,1.106420442199707,8.907776914215088,1.4435539634704588
1790690958723061800,4.173061767578125,1.532887612915039,8.84837078552246,1.7630302474975585
1790690958733099800,4.183099853515625,2.549076580047607,8.610895908355712,1.6678607315063476
1790690958743137800,4.1931376953125,2.934243772125244,8.608800981903075,1.2904746948242187
1790690958753175800,4.20317578125,3.296965323638916,8.584260414886474,1.4003086959838866
1790690958763213600,4.213213623046875,3.347093920898437,8.528744863891601,1.3468880714416502
1790690958773251800,4.223251953125,3.4693478431701656,8.632593360900879,1.2517185554504393
1790690958783289600,4.23328955078125,3.5329438247680662,8.673594064331054,1.336862351989746
1790690958793327900,4.243327880859375,3.3557729019165037,8.621669815826415,1.2797007873535156
1790690958803365600,4.25336572265625,3.5380315032958984,8.813056311035156,1.3271359077453613
1790690958813404700,4.26340478515625,3.577086917877197,8.921693211364746,1.2249334243774412
1790690958823442700,4.273442626953125,3.2906805442810056,9.021202217864989,1.124227317047119
1790690958833481000,4.28348095703125,3.459621398925781,8.761730612945556,1.789516103363037
1790690958843518700,4.293518798828125,3.355473626708984,8.489988724517822,1.737142942047119
1790690958853556700,4.303556640625,2.9224224014282223,8.839542166900634,1.2949638229370117
1790690958863594800,4.3135947265625,2.77098914642334,8.91974792251587,1.5420155067443846
1790690958873632800,4.3236328125,2.9032687881469723,8.70830998840332,1.2113164024353027
1790690958883670800,4.3336708984375,3.0071172851562498,8.75948604888916,0.9756371765136718
1790690958893708800,4.343708740234375,2.8848633628845213,8.525752111816406,0.8358756546020507
1790690958903746800,4.353746826171875,3.0909143432617188,8.268225795745849,0.5449801528930663
1790690958913784800,4.363784912109375,3.199850518798828,8.171110990905762,1.159392153930664
1790690958923822600,4.373822509765625,3.8416462013244628,8.179191421508788,1.8804957664489745
1790690958933860900,4.38386083984375,3.58801046295166,8.259397177124024,1.3519757499694824
1790690958943898600,4.393898681640625,3.070114716339111,8.375964870452881,2.19623111038208
1790690958953937000,4.40393701171875,4.11129316329956,7.530512409210204,1.8803461288452148
1790690958963974700,4.413974609375,2.3663690658569334,8.045415403747558,0.6105214233398437
1790690958974013700,4.424013671875,2.5909751091003415,7.945307846832275,1.3287819213867187
1790690958984051700,4.4340517578125,3.165583507537842,8.53622674407959,1.2291232772827148
1790690958994089700,4.44408984375,2.523638187408447,9.3209263381958,1.4465467155456542
1790690959004127700,4.454127685546875,2.0519804603576657,9.642647186279296,0.3893570449829101
1790690959014165800,4.464165771484375,3.988141415405273,8.86782367401123,2.3205799591064453
1790690959024203000,4.474203125,3.144334967803955,8.678083192443847,2.4609400314331054
1790690959034241300,4.4842412109375,2.7373206855773926,9.207800309753418,0.9892541984558105
1790690959044279000,4.494279052734375,2.43250888671875,8.850016799163818,2.0491373458862303
1790690959054317000,4.504317138671875,1.171512799835205,9.268403539276122,2.491765377807617
1790690959064355000,4.51435498046875,3.7089176467895504,8.423399990844725,1.3645453086853025
1790690959074393000,4.52439306640625,1.4417583122253417,7.666682628631591,1.222539222717285
1790690959084431000,4.53443115234375,0.8198644309997558,8.227973280334473,2.0883423980712887
1790690959094469000,4.54446923828125,0.18076222534179687,9.247903187561034,1.9270330612182616
1790690959104507100,4.554507080078125,2.401084989929199,9.566182370758057,1.3256395317077636
1790690959114545200,4.564545166015625,1.9416975463867185,9.728838446044922,1.3320739486694335
1790690959124583000,4.5745830078125,2.204461178588867,10.697293017578124,1.4315829551696777
1790690959134621200,4.58462109375,3.555239827728271,10.5858130027771,1.0694599540710448
1790690959144660000,4.594659912109375,14.334384614562987,11.759271091461182,0.08664017257690429
1790690959154698200,4.6046982421875,5.517138450622558,8.46574743270874,1.6970400642395018
1790690959164736000,4.614736083984375,-7.982118697357177,7.945307846832275,1.1617863555908203
1790690959174774300,4.624774169921875,6.746710640716552,12.148179223632813,0.5497685562133788
1790690959184812000,4.63481201171875,5.446808776855469,9.945364058685302,1.9532196418762207
1790690959194850300,4.644850341796875,0.23912089080810545,8.24802471923828,3.3506852233886715
1790690959204888000,4.65488818359375,0.6148609138488769,12.230479905700683,5.568763423919678
1790690959214926000,4.664926025390625,3.0732571060180662,13.31131231765747,3.674650635528564
1790690959224964000,4.674964111328125,1.784428424835205,7.951742263793945,0.13646949462890623
1790690959235002000,4.685002197265625,4.443937556457519,8.473528588104248,1.8957588020324705
1790690959245040000,4.6950400390625,4.514716143035888,8.588899180603027,2.790591672515869
1790690959255078100,4.705078125,3.7900212280273435,8.721328459930419,2.3454198013305665
1790690959265116200,4.7151162109375,0.8412626083374023,9.4741552444458,1.7953519699096678
1790690959275154200,4.725154296875,-3.1809961807250975,10.771662906646728,0.658854369354248
1790690959285192000,4.73519189453125,4.696974744415283,10.884340022277831,0.3350385948181152
1790690959295230200,4.745230224609375,4.198531886291503,9.747393508911133,1.384147834777832
1790690959305269000,4.75526904296875,3.1399954772949217,8.829067534637451,2.0778677658081053
1790690959315307300,4.765307373046875,2.8464064987182613,8.789263932037352,2.1709423553466793
1790690959325345000,4.775344970703125,2.8028619560241697,8.548646665191649,2.377142973327637
1790690959335383300,4.78538330078125,4.02824429321289,9.486275890350342,2.175730758666992
1790690959345421000,4.795421142578125,2.2041619033813475,12.742689423370361,2.433705987548828
1790690959355459300,4.805459228515625,1.2764087600708007,9.487173715972899,1.579424907684326
1790690959365497000,4.8154970703125,1.3537714012145996,8.655637551879883,2.431910336303711
1790690959375535000,4.82553515625,1.1501146224975585,7.88470461730957,4.39859736251831
1790690959385573000,4.835572998046875,2.797624639892578,9.323170902252198,3.902548706054687
1790690959395611100,4.845611083984375,0.0987608184814453,8.13923818130493,3.500622102355957
1790690959405649200,4.855649169921875,2.207154655456543,10.312275463104248,1.6201263359069824
1790690959415687200,4.865687255859375,3.4784757369995116,10.569053591156004,-0.2346317626953125
1790690959425725200,4.87572509765625,1.5294459480285643,9.406668685150146,0.6627449470520019
1790690959435763200,4.88576318359375,8.769811043548584,10.509647462463379,-0.7688380081176758
1790690959445801000,4.895801025390625,11.4784013092041,9.050231912994384,1.359158354949951
1790690959455839200,4.905839111328125,2.0403087272644043,9.58354033279419,1.3889362380981445
1790690959465878000,4.9158779296875,-0.21817162628173828,9.302820188140869,1.523310806274414
1790690959475916000,4.925916015625,3.333476898956299,8.536974932098389,3.07714768371582
1790690959485954000,4.9359541015625,4.438400965118408,9.07776523208618,3.162890030670166
1790690959495992000,4.945991943359375,3.521571366882324,8.9125653175354,1.882740330505371
1790690959506030000,4.956030029296875,2.5942671363830563,9.037363079071044,1.94079972076416
1790690959516068000,4.966068115234375,3.1242835289001465,9.035567427825928,1.9047370582580565
1790690959526106000,4.976106201171875,3.8890813217163083,9.26466259918213,1.2496236289978027
1790690959536144100,4.98614404296875,3.3500866729736325,9.252392315673827,1.27042325592041
1790690959546182100,4.99618212890625,2.9994857673645017,8.926331977081299,1.6115969924926756
1790690959556220200,5.00622021484375,3.3268928443908687,9.104999275970458,1.9515736282348632
1790690959566258200,5.016258056640625,3.338115664672851,9.0788126953125,1.7791911087036132
1790690959576296200,5.026296142578125,3.2703298301696777,9.312097719573973,1.9042881454467773
1790690959586334200,5.036334228515625,-1.6707038459777832,8.384194938659668,2.880673509979248
1790690959596372200,5.046372314453125,1.5049053810119628,7.808688714599609,3.7530607398986815
1790690959606410000,5.056409912109375,5.839308211517333,8.07534292449951,3.1699229980468746
1790690959616448300,5.0664482421875,6.19260259399414,8.589797006225586,3.735553140258789
1790690959626487000,5.076487060546875,2.983474543762207,8.97556274871826,3.6070144386291503
1790690959636525000,5.086525146484375,-1.6244658264160154,9.664344638824462,1.1212345649719238
1790690959646563000,5.09656298828125,-0.6126163497924805,8.614038298034668,0.5861304939270019
1790690959656601000,5.10660107421875,-0.028431144714355466,8.37057791671753,0.8303390632629394
1790690959666639000,5.11663916015625,0.48228199691772455,9.721356565856933,1.2773065856933592
1790690959676677000,5.126677001953125,4.431367997741699,9.4481183013916,0.651821401977539
1790690959686715100,5.136715087890625,15.429432598876952,8.85450592727661,-1.254561669921875
1790690959696753200,5.146753173828125,9.547178395080566,9.8442090385437,1.7025766555786133
1790690959706791200,5.156791259765625,2.0060417160034176,9.361777404022217,2.36217921295166
1790690959716829200,5.1668291015625,-0.17791911087036133,8.547299926757812,2.4350527259826658
1790690959726867200,5.1768671875,1.411531516265869,9.252392315673827,1.3358148887634276
1790690959736905200,5.1869052734375,4.828206922912598,10.754753857421875,0.7170633972167968
1790690959746943000,5.19694287109375,4.947468093109131,10.383802237701415,0.9406219772338866
1790690959756981200,5.206981201171875,3.259406285095215,10.058340449523925,1.3307272102355956
1790690959767019000,5.21701904296875,2.9686604209899903,9.956287603759765,1.1948562660217283
1790690959777057300,5.227057373046875,3.8640918418884276,9.865008665466307,1.0347440299987793
1790690959787096000,5.237095947265625,3.580977495574951,10.01075569152832,0.5750573112487792
1790690959797134000,5.247134033203125,2.8603227958679196,9.896432562255859,0.2733879020690918
1790690959807172000,5.257172119140625,2.3026234466552733,9.702951140594482,0.2079962692260742
1790690959817210000,5.267210205078125,4.078372890472412,9.427917224884032,0.5457283409118652
1790690959827248000,5.277248046875,4.148852201843262,8.973617459869384,1.055244381713867
1790690959837286000,5.287285888671875,4.531176279449463,8.788815019226075,2.8104934738159177
1790690959847324200,5.29732421875,3.877409588623047,7.840711161804199,2.8851626380920408
1790690959857362000,5.30736181640625,2.5074773262023924,8.17829359588623,1.9885341163635253
1790690959867400200,5.317400146484375,1.5975310577392576,8.143128759002686,1.4374188217163084
1790690959877438000,5.32743798828125,1.8969559028625487,8.080430603027343,1.3724761016845701
1790690959887476200,5.337476318359375,3.588609013366699,7.960271607208251,2.281823819732666
1790690959897514000,5.347513916015625,5.466710578155517,7.608323963165283,3.304447203826904
1790690959907552000,5.357552001953125,4.2223242652893065,8.046313229370117,3.621678923797607
1790690959917590000,5.367590087890625,1.8378490493774413,8.400804712677001,3.0461726997375487
1790690959927628000,5.3776279296875,1.7922095802307128,8.416666298675537,2.7398645248413085
1790690959937666300,5.387666259765625,1.9197008186340332,8.927379440307616,2.3765444229125974
1790690959947705000,5.397705078125,2.8918963302612304,8.996212738037109,1.6240169136047362
1790690959957743000,5.4077431640625,3.995922570800781,9.13582462234497,1.1812392440795898
1790690959967781000,5.417781005859375,3.5212720916748044,9.162909028625489,1.3260884445190428
1790690959977819100,5.427819091796875,2.6978163581848142,9.348459657287597,1.6250643768310546
1790690959987857200,5.437857177734375,3.2410008598327633,9.596858079528808,1.6754922492980957
1790690959997895000,5.44789501953125,4.322880735015869,9.385569783020019,1.7842787872314452
1790690960007933200,5.45793310546875,3.4775779113769527,9.39185456237793,2.584391054534912
1790690960017971000,5.467970947265625,3.0737060188293457,9.182511554718017,2.6013001037597654
1790690960028008400,5.478008544921875,3.19850378036499,9.245658623504639,2.5101708030700682
1790690960038046700,5.488046630859375,3.1624411178588865,9.083301823425293,2.4539070640563962
1790690960048084500,5.49808447265625,3.012204963684082,9.156474611663818,2.2138883476257325
1790690960058122800,5.508122802734375,4.1286511253356935,9.089586602783202,2.0542250244140625
1790690960068160500,5.518160400390625,4.523694399261474,9.209595960998534,2.003946789550781
1790690960078198500,5.528198486328125,4.077475064849853,8.990526509094238,2.4959552307128905
1790690960088236500,5.538236572265625,2.7020062110900875,9.077914869689941,2.942324202728271
1790690960098275300,5.548275390625,3.2713772933959957,8.736142582702636,2.874837643432617
1790690960108313600,5.558313720703125,3.7886744895935056,8.16617294998169,2.858676782226562
1790690960118351400,5.568351318359375,3.525910857391357,8.158242156982421,2.749740606689453
1790690960128389600,5.5783896484375,3.2302269523620604,8.557176008605957,2.6001030029296874
1790690960138427400,5.588427490234375,3.9523780281066894,8.747515040588379,1.834257746887207
1790690960148465700,5.598465576171875,3.9127240631103515,9.06025763244629,1.820191812133789
1790690960158503400,5.60850341796875,3.65804086151123,9.055169953918456,1.7649755363464354
1790690960168541400,5.61854150390625,3.1015386131286617,8.908076189422607,1.9794062225341795
1790690960178579500,5.628579345703125,3.487005080413818,8.755894746398925,2.1282956382751466
1790690960188617500,5.638617431640625,3.9351697036743163,8.71459476776123,2.026392430114746
1790690960198655500,5.648655517578125,4.037970737457275,8.690054200744628,1.8439841911315917
1790690960208693500,5.658693603515625,4.779425064086913,8.423549628448486,2.807949634552002
1790690960218731500,5.6687314453125,4.129100038146972,8.60565859222412,2.054374662017822
1790690960228769500,5.67876953125,1.7435773590087889,8.802581678771972,2.205658279418945
1790690960238807600,5.6888076171875,3.3897406379699704,8.896853369140624,2.288707149505615
1790690960248845600,5.698845458984375,4.410269095611572,9.173982211303711,2.054973212432861
1790690960258884400,5.70888427734375,4.6865001121521,9.471162492370604,1.7317559883117675
1790690960268922600,5.718922607421875,4.057124350738525,9.496600885009766,1.497722776031494
1790690960278960400,5.72896044921875,3.2160113800048826,9.102605074310302,2.0483891578674314
1790690960288998700,5.73899853515625,1.85146607131958,8.35681125717163,4.172345305633545
1790690960299036400,5.749036376953125,2.169445979309082,8.72117882232666,3.1693244476318356
1790690960309074700,5.75907470703125,4.425532131195068,8.634239374542236,3.0240263343811034
1790690960319112400,5.769112548828125,3.9420530334472654,8.444199617767334,3.8572085121154784
1790690960329150500,5.779150390625,3.3545758010864257,8.47218184967041,3.27526787109375
1790690960339188500,5.7891884765625,4.6912885154724115,9.047388798522949,1.8224363761901854
1790690960349226500,5.7992265625,5.140350964355468,9.158868813323974,2.024297503662109
1790690960359264500,5.809264404296875,3.631555005645752,9.527725506591796,1.935712042236328
1790690960369302500,5.819302490234375,3.800495860290527,9.865008665466307,1.237951895904541
1790690960379340300,5.82934033203125,4.056376162719726,9.911994873046874,2.484582772827148
1790690960389378600,5.839378662109375,3.4946365982055663,10.1767037940979,2.64304899520874
1790690960399416300,5.849416259765625,3.8449382286071776,9.995492655944824,1.970128691101074
1790690960409455600,5.85945556640625,3.7844846366882323,9.49929436187744,2.0548235748291015
1790690960419493400,5.869493408203125,3.311480171203613,9.132831870269776,1.460762287902832
1790690960429531600,5.87953173828125,3.7208886550903317,9.297133959197998,1.3576619789123534
1790690960439569400,5.8895693359375,3.760841895294189,8.8482211479187,0.8171709541320801
1790690960449607700,5.899607666015625,4.209156156158447,9.19418328781128,1.2949638229370117
1790690960459645400,5.9096455078125,3.057545157623291,8.320000406646727,1.041328084564209
1790690960469683500,5.919683349609375,1.0079588989257813,9.04649097290039,1.0407295341491698
1790690960479721500,5.929721435546875,4.049343195343018,8.947730154418945,-0.09472060317993164
1790690960489759500,5.939759521484375,5.005826758575439,6.846369284820557,1.3754688537597655
1790690960499797500,5.949797607421875,1.9045874206542968,8.050951995086669,-1.0772411094665526
1790690960509835500,5.95983544921875,5.345953031921386,9.586981997680663,0.8560767311096191
1790690960519873500,5.96987353515625,1.6530466087341307,10.328735599517822,-0.29403789138793945
1790690960529911600,5.97991162109375,3.041533934020996,8.173205917358398,-0.6675333503723144
1790690960539949300,5.98994921875,2.9746459251403805,8.755745108795166,-2.79014275970459
1790690960549987600,5.999987548828125,3.264942876434326,7.659200748443603,-0.10549451065063475
1790690960560025300,6.010025390625,4.483741159057617,10.114454550933837,1.14278237991333
1790690960570064600,6.020064697265625,0.8689455650329589,7.980173408508301,3.3545758010864257
1790690960580102400,6.030102294921875,4.590582408142089,8.89281315383911,1.5191209533691405
1790690960590140700,6.040140625,4.348169490051269,8.448988021087645,2.025045691680908
1790690960600178400,6.050178466796875,2.392256371307373,8.8742580909729,-0.18599954147338865
1790690960610216700,6.060216796875,3.2462381759643555,8.882488159179687,-0.8699930282592773
1790690960620254500,6.07025439453125,3.6637270904541013,8.340351120758056,-0.9497498710632324
1790690960630292500,6.08029248046875,3.106775929260254,8.329876488494872,-0.6235398948669433
1790690960640330500,6.09033056640625,3.5889082885742187,8.799140013885497,-0.13168109130859373
1790690960650368500,6.100368408203125,3.788524851989746,9.003844255828858,-0.2587234169006348
1790690960660406500,6.110406494140625,3.2793080863952633,8.685116159820556,0.22999299697875975
1790690960670444500,6.120444580078125,3.203741096496582,8.606406780242919,0.7945756759643554
1790690960680482600,6.130482666015625,4.209455431365966,9.36641616973877,0.6052841072082519
1790690960690520600,6.1405205078125,2.8274025230407713,9.432406352996825,-1.0069114356994628
1790690960700558300,6.150558349609375,2.9219734886169433,9.954940865325927,-1.380257257080078
1790690960710596600,6.1605966796875,2.830544912719726,8.062174815368651,-0.9973346290588379
1790690960720634400,6.17063427734375,4.191798194122314,7.927052059173583,0.14963760375976562
1790690960730673700,6.180673583984375,4.507832813262939,7.64827720336914,0.20679916839599607
1790690960740711400,6.19071142578125,3.74123936920166,8.35067611541748,-0.23912089080810545
1790690960750749700,6.200749755859375,4.133888441467285,15.48824017715454,-0.1183633445739746
1790690960760787500,6.210787353515625,2.7091888160705566,11.640159558868408,0.14634557647705076
1790690960770825700,6.22082568359375,2.375496959686279,8.417264849090575,0.27398645248413084
1790690960780863500,6.230863525390625,2.1903952438354493,9.823409411621093,0.9572317512512206
1790690960790901500,6.240901611328125,4.385728528594971,9.942371306610108,1.0854711776733397
1790690960800939500,6.250939453125,4.824316345214844,9.708038819122313,0.8336310905456542
1790690960810977500,6.2609775390625,2.3235727111816407,9.566182370758057,0.5077203895568847
1790690960821015600,6.271015625,4.345625650787353,9.71686743774414,2.0597616157531737
1790690960831053600,6.281053466796875,3.9960722084045406,9.465027350616454,0.6678326255798339
1790690960841091600,6.291091552734375,2.063352918243408,9.228899211883544,0.30466216125488277
1790690960851129600,6.301129638671875,2.9028198753356933,9.26376477355957,-0.4709095390319824
1790690960861167400,6.31116748046875,4.404433229064941,9.102605074310302,1.2147580673217773
1790690960871205600,6.32120556640625,4.809202947235107,9.081206896972656,1.6986860778808592
1790690960881243400,6.331243408203125,3.9342718780517574,9.382726668548584,1.6500538566589356
1790690960891282400,6.341282470703125,2.507776601409912,9.11667100906372,1.6819266662597656
1790690960901320400,6.351320556640625,2.8770822074890137,9.0021982421875,1.1695675109863282
1790690960911358700,6.361358642578125,3.2609026611328122,9.368511096191405,1.0883142921447753
1790690960921396500,6.371396484375,3.6195839973449706,9.154529322814941,1.005564697265625
1790690960931434800,6.381434814453125,3.802590786743164,9.30162308731079,0.6952163070678711
1790690960941472500,6.391472412109375,3.4425627120971676,9.33364553451538,0.771830760192871
1790690960951510500,6.401510498046875,2.44507844543457,9.349507120513916,0.5638344909667968
1790690960961548500,6.411548583984375,2.8458079483032224,9.402628469848633,0.7653963432312011
1790690960971586600,6.421586669921875,3.887584945678711,9.118317022705078,1.2729670951843262
1790690960981624600,6.43162451171875,3.743633570861816,9.478494734954834,1.2205939338684082
1790690960991662600,6.44166259765625,2.7512369827270504,9.099313047027588,1.3863923988342284
1790690961001700600,6.45170068359375,3.352630512237549,8.866028022766113,1.1243769546508788
1790690961011738600,6.461738525390625,3.193416101837158,8.975712386322021,1.3407529296874998
1790690961021777200,6.471777099609375,3.169025172424316,8.944138851928711,1.1743559143066407
1790690961031815200,6.481815185546875,2.6864439002990723,8.921693211364746,0.797418790435791
1790690961041854200,6.491854248046875,2.9589339767456053,9.077615594482422,0.9843161575317382
1790690961051892000,6.50189208984375,3.534290563201904,9.248501737976074,1.2684779670715332
1790690961061930200,6.51193017578125,2.9523499221801757,9.36013139038086,1.1029787773132325
1790690961071968000,6.521968017578125,3.634697395324707,9.010577947998046,1.2147580673217773
1790690961082006300,6.53200634765625,3.955071504974365,8.914360968780517,1.0944494338989257
1790690961092044000,6.5420439453125,3.377769629669189,9.128642017364502,0.8201637062072753
1790690961102082300,6.552082275390625,2.807799996948242,9.30147344970703,0.7522282341003418
1790690961112120000,6.5621201171875,3.1765070526123047,9.307010041046142,0.7694365585327148
1790690961122158000,6.572157958984375,3.706224169921875,9.276184694671631,0.8391676818847655
1790690961132196000,6.582196044921875,3.963002297973633,9.015216713714599,1.0293570762634277
1790690961142234000,6.592234130859375,3.3276410324096677,8.865279834747314,0.9241618408203125
1790690961152272100,6.602272216796875,2.7061960639953613,8.792555959320067,0.7359177352905273
1790690961162310100,6.61231005859375,2.8082489097595214,8.789712844848632,0.6233902572631835
1790690961172348200,6.62234814453125,3.586214811706543,8.76502264022827,0.6661866119384765
1790690961182386200,6.63238623046875,4.114884465789794,8.845078758239746,0.5659294174194336
1790690961192424000,6.642423828125,3.831321206665039,8.89386061706543,0.6750152305603027
1790690961202462200,6.652462158203125,3.1010897003173827,9.027935910034179,0.577152237701416
1790690961212501000,6.6625009765625,2.6689363006591798,9.3086560546875,0.4128501487731933
1790690961222539300,6.672539306640625,3.2558149826049805,9.595062428283692,0.25049334869384765
1790690961232577000,6.682576904296875,4.046948993682861,9.800365220642089,-0.04219780426025391
1790690961242615300,6.692615234375,3.3705870246887204,9.794230078887939,-0.004189852905273437
1790690961252653000,6.702653076171875,2.8274025230407713,9.738714527893066,0.18914193115234373
1790690961262691300,6.71269140625,2.935440872955322,9.673472532653808,0.4246715194702148
1790690961272729000,6.72272900390625,3.3720834007263183,9.61451531677246,0.738012661743164
1790690961282767000,6.73276708984375,3.659537237548828,9.532813185119629,1.044470474243164
1790690961292805000,6.74280517578125,3.521571366882324,9.429413600921631,1.2051812606811523
1790690961302843100,6.752843017578125,3.1720179244995115,9.329754956817627,1.1369465133666992
1790690961312881200,6.762881103515625,2.8754361938476563,9.248501737976074,1.1258733306884765
1790690961322919200,6.772919189453125,3.1371523628234863,9.093177905273437,1.1656769332885741
1790690961332957200,6.782957275390625,3.3611598556518554,8.91840118408203,1.1170447120666502
1790690961342995200,6.7929951171875,3.0796915229797364,8.88069250793457,1.2454337760925291
1790690961353033000,6.803032958984375,2.84101954498291,8.91316386795044,1.3262380821228026
1790690961363072300,6.813072265625,3.01355170211792,8.865878385162352,1.3787608810424803
1790690961373110000,6.823110107421875,3.466205453491211,8.844031295013426,1.5515923133850096
1790690961383148300,6.833148193359375,3.435529744720459,8.985887743377685,1.5310919616699217
1790690961393186000,6.84318603515625,3.3596634796142575,9.130437668609618,1.3130699729919433
1790690961403224300,6.853224365234375,3.520224628448486,9.226804285430907,1.0622773490905761
1790690961413262000,6.863261962890625,3.4255040252685545,9.351901322174072,0.8595183959960937
1790690961423300400,6.87330029296875,3.1836896575927733,9.418938968658447,0.7128735443115234
1790690961433338000,6.883338134765625,2.844161934661865,9.438541494750975,0.7312789695739745
1790690961443376000,6.893376220703125,3.1980548675537106,9.560346504211426,0.643591333770752
1790690961453414100,6.9034140625,3.623773850250244,9.553463174438477,0.5479729049682617
1790690961463452200,6.9134521484375,3.6918589599609373,9.395745140075682,0.6262333717346191
1790690961473490200,6.923490234375,3.5711014137268062,9.269002089691162,0.679953271484375
1790690961483528200,6.933528076171875,3.4516906059265136,9.07911197052002,0.7490858444213867
1790690961493566000,6.94356591796875,3.3048961166381834,8.836848690032959,0.8782230964660644
1790690961503604200,6.953604248046875,3.177853791046142,8.845078758239746,0.8904933799743652
1790690961513642000,6.96364208984375,3.3240497299194334,8.900594309234618,0.7631517791748046
1790690961523681300,6.973681396484375,3.540874617767334,8.985438830566405,0.6750152305603027
1790690961533719000,6.983718994140625,3.3194109642028806,9.21887349243164,0.5690718070983887
1790690961543757300,6.99375732421875,3.0336031410217283,9.344868354797363,0.6217442436218261
1790690961553795000,7.003795166015625,3.0916625312805173,9.433603453826903,0.43035774841308594
1790690961563833300,7.013833251953125,3.201795807647705,9.434202004241943,0.5635352157592773
1790690961573871000,7.02387109375,3.4289456901550293,9.190143072509764,0.9702502227783203
1790690961583909000,7.0339091796875,3.3545758010864257,9.540893615722656,0.8264484855651855
1790690961593947100,7.043947021484375,3.40949280166626,9.376890802001952,1.3733739273071288
1790690961603985200,7.053985107421875,3.7585973312377927,9.251644127655029,1.5613187576293945
1790690961614023200,7.064023193359375,3.6445734771728513,9.43524946746826,1.096843635559082
1790690961624061200,7.074061279296875,3.0353987922668457,9.517999062347412,0.89378540725708
1790690961634099200,7.08409912109375,2.8918963302612304,9.40457375869751,0.6018424423217773
1790690961644137200,7.09413720703125,2.955193036651611,9.246257173919677,0.6944681190490722
1790690961654175000,7.104175048828125,3.277961347961426,9.070881902313232,0.9106944564819336
1790690961664213200,7.114213134765625,3.42191272277832,8.912864592742919,1.1481693336486816
1790690961674251000,7.1242509765625,3.3634044197082518,8.703671222686767,1.2219406723022461
1790690961684290000,7.1342900390625,3.0547020431518552,8.930821105194092,0.7211036125183105
1790690961694328000,7.144328125,3.264793238830566,9.08494783706665,0.6477811866760254
1790690961704366000,7.154365966796875,3.0439281356811523,9.171737647247314,0.7116764434814453
1790690961714404000,7.164404052734375,3.0419828468322754,9.271845204162597,0.5021837982177734
1790690961724442400,7.1744423828125,3.150619747161865,9.223661895751952,0.6881833396911621
1790690961734480100,7.184480224609375,3.362057681274414,9.166051418304443,0.8313865264892578
1790690961744518100,7.19451806640625,3.550451424407959,9.18086554107666,0.8942343200683593
1790690961754556200,7.20455615234375,3.4319384422302246,9.358186101531983,0.4402338302612304
1790690961764594200,7.21459423828125,3.6016274848937986,9.48044002380371,0.34925416717529295
1790690961774632200,7.224632080078125,3.9558196929931637,9.198822053527831,1.1225813034057617
1790690961784670200,7.234670166015625,4.034229797363281,9.189245246887207,1.4561235221862792
1790690961794708200,7.244708251953125,3.3948283164978026,9.099911597442626,1.7311574378967285
1790690961804746200,7.254746337890625,2.9474118812561034,8.989030133056641,1.9123685760498046
1790690961814784000,7.264783935546875,2.6556185539245605,8.839991079711913,1.8191443489074706
1790690961824822300,7.274822265625,3.8639422042846676,8.706663974761963,2.067243495941162
1790690961834860000,7.284860107421875,3.4204163467407223,8.67613790359497,2.397942600250244
1790690961844899000,7.294899169921875,3.052307841491699,9.025840983581542,1.7067665084838866
1790690961854937000,7.30493701171875,-3.6950013496398926,9.638008420562743,1.4757260482788086
1790690961864975000,7.31497509765625,11.999888358306885,8.865130197143554,-1.1700164237976074
1790690961875013000,7.32501318359375,6.981791316223144,10.068665444183349,-0.0665887336730957
1790690961885051100,7.335051025390625,-1.7185878791809082,9.566481645965576,1.9213468322753906
1790690961895089200,7.345089111328125,1.0821791503906248,8.974066372680664,0.3872621185302734
1790690961905127200,7.355127197265625,4.952256496429443,8.74601866455078,0.17118541870117188
1790690961915165200,7.365165283203125,5.079149184417724,8.811859210205078,0.8674491889953613
1790690961925203200,7.375203125,2.9038673385620117,9.076268856048584,0.5943605621337891
1790690961935241200,7.3852412109375,3.1865327720642087,9.08494783706665,0.16385317611694336
1790690961945279200,7.395279296875,3.806780639648437,9.14210940170288,0.5506663818359374
1790690961955317200,7.405317138671875,3.4473511154174803,9.249100288391112,1.0378864196777342
1790690961965355300,7.415355224609375,3.351283773803711,9.145700704193114,1.4303858543395995
1790690961975393000,7.42539306640625,2.995744827270508,9.075819943237304,1.7863737136840818
1790690961985431300,7.435431396484375,3.193416101837158,9.055169953918456,2.11333187789917
1790690961995469000,7.445468994140625,4.062511304473877,9.503933127593994,2.085948196411133
1790690962005507300,7.45550732421875,4.089446073150635,9.35294878540039,1.8427870903015136
1790690962015546000,7.465546142578125,3.3864486106872556,9.402628469848633,1.7643769859313965
1790690962025583900,7.475583984375,3.755903854370117,9.094674281311034,1.664419066619873
1790690962035622000,7.485621826171875,2.559251937103271,9.346664006042479,0.5578489868164063
1790690962045660000,7.495659912109375,2.9385832626342774,9.842114112091064,1.1227309410095214
1790690962055697700,7.50569775390625,3.800046947479248,9.30296982574463,1.61533793258667
1790690962065736000,7.51573583984375,4.243572805023193,9.6151138671875,2.463633508300781
1790690962075773700,7.525773681640625,4.60315196685791,9.031676850128173,1.623568000793457
1790690962085812000,7.53581201171875,3.411138815307617,8.641122704315185,0.10669161148071288
1790690962095849700,7.545849609375,2.192190895080566,8.971522533416747,-2.0446482177734375
1790690962105888000,7.555887939453125,2.7636569038391112,8.921393936157227,-3.4810195762634275
1790690962115925800,7.56592578125,1.9623475357055662,8.56765064086914,-2.5761609863281247
1790690962125963800,7.5759638671875,2.965368393707275,8.486995972442626,-1.1538555625915528
1790690962136001800,7.586001708984375,3.8832454551696776,8.819341090393065,-0.35449148330688474
1790690962146039800,7.596039794921875,3.699640115356445,8.9891797706604,-0.36915596847534177
1790690962156077800,7.606077880859375,3.250876941680908,9.214085089111327,-0.2002151138305664
1790690962166115800,7.61611572265625,3.3444004440307613,9.326612567138671,0.000748188018798828
1790690962176155000,7.62615478515625,3.4147301177978515,9.455450543975829,-0.6018424423217773
1790690962186192600,7.636192626953125,3.350535585784912,9.630227265167235,-1.0283096130371092
1790690962196231000,7.64623095703125,3.2070331237792966,9.64698667678833,-1.07888712310791
1790690962206268700,7.6562685546875,3.5218706420898434,9.857077872467041,-0.8631096984863281
1790690962216306700,7.666306640625,3.393631215667724,9.787945299530028,-1.1454758567810057
1790690962226344700,7.6763447265625,2.850596351623535,9.693823246765136,-1.1879729362487792
1790690962236382700,7.6863828125,3.478176461791992,9.42986251373291,0.23403321228027343
1790690962246420700,7.696420654296875,4.21349564666748,9.202114080810546,1.0013748443603514
1790690962256458800,7.706458740234375,3.3165678497314452,9.197475315093994,0.4438251327514648
1790690962266496800,7.716496826171875,2.849997801208496,9.006687370300293,0.6479308242797851
1790690962276534800,7.72653466796875,3.2884359802246093,8.776844010925293,0.8289923248291016
1790690962286572800,7.73657275390625,3.7050270690917966,8.815749787902831,0.10175357055664062
1790690962296610800,7.74661083984375,3.6064158882141113,8.75305163192749,-0.15203180541992187
1790690962306648800,7.75664892578125,3.25596462020874,8.837896153259276,-0.30840310134887694
1790690962316686800,7.766686767578125,3.2152631919860837,9.002347879791259,-0.09068038787841796
1790690962326724900,7.776724853515625,3.416376131439209,9.204059369659424,0.7842506813049316
1790690962336764000,7.786763916015625,3.4715924072265625,9.011176498413086,2.0087351928710935
1790690962346801700,7.7968017578125,3.2558149826049805,9.062951109313964,2.0822072563171385
1790690962356840000,7.80683984375,3.425055112457275,9.286060776519776,1.1658265708923339
1790690962366877700,7.816877685546875,3.6592379623413085,9.368960009002684,0.43140521163940426
1790690962376915700,7.826915771484375,3.4495956794738767,9.39095673675537,0.5850830307006836
1790690962386953700,7.83695361328125,3.1105168693542478,9.35249987258911,0.6284779357910156
1790690962396991700,7.84699169921875,3.0912136184692383,9.291298092651367,0.6771101570129394
1790690962407029800,7.85702978515625,3.345896820068359,9.281272373199462,0.5361515342712402
1790690962417067800,7.86706787109375,3.3640029701232907,9.392004199981688,0.5403413871765136
1790690962427105800,7.877105712890625,3.4292449653625487,9.318232861328125,0.6522703147888184
1790690962437143800,7.887143798828125,3.35816710357666,9.253140503692626,0.7787140899658203
1790690962447181800,7.897181884765625,3.405901499176025,9.207501034545897,0.9841665199279784
1790690962457219800,7.9072197265625,3.512144197845459,9.26331586074829,0.9988310050964355
1790690962467257900,7.9172578125,3.4478000282287597,9.356839363098144,0.7993640792846679
1790690962477295900,7.9272958984375,3.2797569992065427,9.383774131774901,0.7184101356506347
1790690962487334000,7.937333984375,3.224690361022949,9.294440482330321,0.734870272064209
1790690962497371600,7.94737158203125,3.3271921195983887,9.228300661468506,0.7007528984069824
1790690962507410700,7.95741064453125,3.4421137992858886,9.145999979400635,0.665887336730957
1790690962517448700,7.96744873046875,3.4234090988159176,9.103053987121582,0.5804442649841308
1790690962527486700,7.97748681640625,3.3738790519714352,9.046790248107909,0.5479729049682617
1790690962537524700,7.987524658203125,3.4528877067565915,8.934262770080565,0.49724575729370113
1790690962547562800,7.997562744140625,3.4065000495910644,8.820089278411865,0.39115269622802734
1790690962557600800,8.007600830078125,3.1510686599731446,8.974664923095702,0.4927566291809082
1790690962567638800,8.017638671875,3.324947555541992,9.11682064666748,0.6130652626037597
1790690962577676800,8.0276767578125,3.8660371307373045,9.120262311553955,0.5319616813659668
1790690962587714600,8.037714599609375,3.903296894073486,9.212289437866211,0.5144540817260742
1790690962597752800,8.0477529296875,3.711162210845947,9.293393019104004,0.6082768592834472
1790690962607790600,8.05779052734375,3.370437387084961,9.245359348297118,0.6833949363708496
1790690962617828900,8.067828857421874,3.155707425689697,9.232640151977538,0.601992079925537
1790690962627866600,8.07786669921875,3.1866824096679687,9.25703108139038,0.41150341033935545
1790690962637905000,8.08790478515625,3.291728007507324,9.279327084350586,0.38741175613403317
1790690962647942700,8.097942626953126,3.4159272186279295,9.318681774139403,0.4629787460327148
1790690962657980700,8.107980712890624,3.5468601219177245,9.348908570098876,0.5267243652343749
1790690962668019000,8.11801904296875,3.6635774528503418,9.318831411743163,0.6001964286804199
1790690962678057700,8.1280576171875,3.6522049949645994,9.27693288269043,0.6596025573730468
1790690962688095700,8.138095703125,3.4006641830444333,9.283666574859618,0.7013514488220215
1790690962698133800,8.1481337890625,3.0092122116088866,9.307758229064941,0.7598597518920898
1790690962708171800,8.158171875,3.2906805442810056,9.172336197662354,0.8915408432006835
1790690962718209800,8.168209716796875,3.7579987808227537,9.04035583114624,0.8447042732238769
1790690962728247800,8.178247802734376,3.608810089874267,8.991274697113036,0.6807014595031737
1790690962738285800,8.188285888671874,3.2510265792846678,9.060556907653808,0.6640916854858399
1790690962748323600,8.198323486328125,3.2158617424011227,9.18715032043457,0.663343497467041
1790690962758361900,8.20836181640625,3.526659045410156,9.249249925994873,0.7559691741943358
1790690962768399600,8.218399658203126,3.585316986083984,9.268104264068603,0.8649053497314453
1790690962778438000,8.22843798828125,3.4214638099670407,9.275586144256591,0.956333925628662
1790690962788475600,8.2384755859375,3.4011130958557128,9.228599936676025,0.9302969825744628
1790690962798514000,8.248513916015625,3.5036148544311523,9.21243907546997,0.7638999671936034
1790690962808551700,8.2585517578125,3.5945945175170895,9.211840525054932,0.7064391273498535
1790690962818589700,8.268589599609374,3.555239827728271,9.102605074310302,0.6440402465820312
1790690962828627700,8.278627685546875,3.371784125518799,8.92513487625122,0.6555623420715332
1790690962838665700,8.288665771484375,2.963572742462158,8.928576541137694,0.4987421333312988
1790690962848704800,8.298704833984376,2.8541876541137694,9.05322466506958,0.45055882492065424
1790690962858742800,8.30874267578125,3.4392706848144527,9.088539139556884,0.5530605834960938
1790690962868780800,8.31878076171875,4.051737397003174,9.082703273010253,0.6280290229797363
1790690962878818800,8.32881884765625,3.9906852546691893,9.168894532775878,0.7793126403808593
1790690962888856800,8.33885693359375,3.353827613067627,9.27633433227539,0.7543231605529784
1790690962898894800,8.348894775390624,3.1268273681640624,9.387515071868895,0.6733692169189452
1790690962908932600,8.3589326171875,3.4454058265686034,9.497797985839844,0.5249287139892578
1790690962918971000,8.368970947265625,3.689464758300781,9.567978022003173,0.4421791191101074
1790690962929008600,8.379008544921875,3.695150987243652,9.660304423522948,0.3893570449829101
1790690962939047000,8.389046875,3.356221814727783,9.624690673828125,0.3625719139099121
1790690962949084700,8.399084716796875,3.3022026397705075,9.488221179199218,0.4601356315612793
1790690962959122700,8.409122802734375,3.337666751861572,9.41744259262085,0.4653729476928711
1790690962969160700,8.41916064453125,3.450493505096435,9.301323812103272,0.5249287139892578
1790690962979198700,8.42919873046875,3.095702746582031,9.137470635986327,0.6955155822753906
1790690962989236700,8.43923681640625,3.226037099456787,9.056666329956053,0.7543231605529784
1790690962999274800,8.449274658203125,3.44750075302124,8.985139555358886,1.2445359504699707
1790690963009312800,8.459312744140625,3.6873698318481445,8.934412407684325,1.378311968231201
1790690963019350800,8.469350830078126,3.4029087471008297,9.113528619384764,0.07167641220092773
1790690963029390300,8.479390380859375,3.1946132026672363,9.033472501373291,1.0075099861145018
1790690963039428400,8.489428466796875,3.1126117958068846,9.025691345977783,0.9106944564819336
1790690963049466000,8.499466064453125,3.305943579864502,9.007136283111572,1.216254443359375
1790690963059504400,8.50950439453125,3.353229062652588,9.128342742156981,1.2195464706420898
1790690963069542100,8.519542236328125,3.189525524139404,9.281122735595703,0.6429927833557129
1790690963079580400,8.529580322265625,3.496432249450683,9.300725261688232,0.10100538253784179
1790690963089618200,8.5396181640625,3.7199908294677733,9.208099584960937,-0.1318307289123535
1790690963099656400,8.549656494140624,3.53069926071167,9.128492379760742,-0.2075473564147949
1790690963109694200,8.559694091796874,3.3846529594421386,9.061155458068846,0.08604162216186523
1790690963119732200,8.569732177734375,3.5175311515808105,8.969577244567871,0.29284079055786133
1790690963129770200,8.579770263671875,3.569455400085449,8.97646057434082,-0.050727147674560547
1790690963139808300,8.589808349609376,3.414879755401611,9.03317322616577,-0.03172317199707031
1790690963149846300,8.59984619140625,3.1905729873657225,9.19927096633911,0.27787703018188475
1790690963159884300,8.60988427734375,3.085377751922607,9.322572351837158,0.429011009979248
1790690963169922300,8.61992236328125,3.5028666664123533,9.315389746856688,0.4055179061889648
1790690963179960300,8.629960205078126,3.5125931106567383,9.361478128814698,0.5882254203796387
1790690963189998000,8.639998046875,3.1775545158386227,9.307159678649901,0.7661445312499999
1790690963200037000,8.650037109375,3.600131108856201,9.177573513793945,0.9840168823242187
1790690963210075100,8.6600751953125,3.649361880493164,9.112331518554686,1.124825867462158
1790690963220113200,8.670113037109376,3.199700881195068,9.207949947357177,0.7921814743041992
1790690963230151200,8.680151123046874,3.2248399986267087,9.041104019165038,0.7091326042175292
1790690963240189400,8.690189453125,3.116352735900879,9.019855479431152,0.8635586112976074
1790690963250227200,8.700227294921875,2.8600235206604,9.204657920074462,0.8975263473510742
1790690963260265500,8.710265380859376,3.4763808105468748,9.152434396362304,0.9573813888549804
1790690963270303200,8.72030322265625,3.512892385864258,9.098864134216308,0.9736918876647949
1790690963280341200,8.73034130859375,2.9972412033081053,9.31509047164917,0.7318775199890136
1790690963290379300,8.740379150390625,2.956689412689209,9.532663547515869,0.6217442436218261
1790690963300417300,8.750417236328126,3.6171897956848142,9.535357024383543,0.5520131202697753
1790690963310455300,8.760455322265624,3.5851673484802244,9.362974504852295,0.7396586753845215
1790690963320493300,8.770493408203125,2.893542343902588,9.289951354217528,0.6504746635437011
1790690963330531000,8.780531005859375,3.0743045692443847,9.229497762298584,0.7534253349304199
1790690963340569300,8.7905693359375,3.5232173805236813,9.074922117614745,0.7294833183288574
1790690963350607000,8.800607177734374,3.4401685104370117,8.970923983001708,0.5517138450622558
1790690963360645400,8.810645263671875,3.655646659851074,8.968380143737793,0.5898714340209961
1790690963370683100,8.82068310546875,3.2071827613830566,8.936357696533202,0.3941454483032226
1790690963380721400,8.830721435546875,2.546233465576172,8.994716361999512,0.32142157287597656
1790690963390760200,8.84076025390625,2.9044658889770507,9.10365253753662,0.2699462371826172
1790690963400798200,8.850798095703125,3.5990836456298827,9.100510147857666,0.23433248748779295
1790690963410836200,8.860836181640625,3.7497687126159667,9.102006523895263,0.3625719139099121
1790690963420874200,8.870874267578126,3.4995746391296385,9.145251791381835,0.4875193130493164
1790690963430912300,8.880912353515624,3.35816710357666,9.292644831085205,-0.6148609138488769
1790690963440950300,8.8909501953125,3.3960254173278805,9.2182749420166,-0.6163572898864745
1790690963450988300,8.90098828125,3.1759085021972653,8.86138925704956,0.19153613281249998
1790690963461026300,8.9110263671875,2.737619960784912,8.633790461730957,-0.5781997009277343
1790690963471064300,8.921064208984374,3.3253964683532713,8.884283810424805,-0.09906009368896483
1790690963481102300,8.931102294921875,3.669562957000732,9.092280079650878,1.0453682998657226
1790690963491140000,8.94114013671875,3.7165491645812985,9.369857834625243,1.1595417915344237
1790690963501178400,8.951178466796875,3.580827857971191,9.950601374816895,1.0483610519409179
1790690963511216000,8.961216064453126,4.112639901733398,10.046369441223144,1.3521253875732422
1790690963521254400,8.97125439453125,5.016151753234863,9.830891291809081,1.5387234794616698
1790690963531292200,8.981292236328125,4.9072155776977535,9.758466691589355,1.2035352470397949
1790690963541330400,8.991330322265625,2.588730545043945,9.878176774597167,0.9546879119873046
1790690963551368200,9.0013681640625,2.7406127128601074,9.431358889770507,1.368735161590576
1790690963561406200,9.01140625,3.91975703048706,9.256731806182861,1.075744733428955
1790690963571445200,9.0214453125,3.800046947479248,9.114276807403565,0.9720458740234375
1790690963581483000,9.03148291015625,3.1603461914062496,9.00159969177246,1.0497077903747558
1790690963591521300,9.041521240234376,2.2393267402648926,9.036914166259765,0.8644564369201659
1790690963601559000,9.05155908203125,2.471414663696289,9.030928662109375,0.7287351303100585
1790690963611597300,9.061597412109375,3.744980309295654,8.89894829559326,0.5400421119689941
1790690963621635000,9.071635009765625,3.8036382499694823,8.843881657409668,0.5511152946472168
1790690963631673300,9.08167333984375,3.0823849998474118,8.897751194763183,0.3902548706054687
1790690963641711400,9.09171142578125,2.9507039085388183,8.996512013244628,0.3441664886474609
1790690963651749000,9.1017490234375,2.905513352203369,9.080309071350097,0.32710780181884763
1790690963661787400,9.111787353515625,2.891447417449951,9.236830004882812,0.2093430076599121
1790690963671825200,9.1218251953125,3.1398458396911617,9.115324270629882,0.5401917495727538
1790690963681863400,9.131863525390624,2.5739164222717283,9.181613729095458,0.48467619857788086
1790690963691901200,9.141901123046875,1.7215806312561035,9.112481156158447,1.376516316986084
1790690963701939500,9.151939453125,5.6574985229492185,8.701426658630371,1.53857384185791
1790690963711977200,9.161977294921876,5.625176800537109,8.91825154647827,0.8984241729736328
1790690963722015200,9.17201513671875,2.831442738342285,8.90583162536621,1.319654027557373
1790690963732053200,9.18205322265625,3.3643022453308102,8.703371947479248,1.9758149200439452
1790690963742091300,9.19209130859375,3.6742017227172847,9.005639907073974,1.6514005950927733
1790690963752130300,9.20213037109375,3.06442848739624,9.303568376159667,1.314566349029541
1790690963762168000,9.21216796875,3.2158617424011227,9.28965207901001,1.2407950103759764
1790690963772206300,9.222206298828125,3.339612040710449,9.303867651367186,1.1245265922546386
1790690963782244000,9.232244140625,3.3527801498413083,9.31479119644165,1.0556932945251465
1790690963792282400,9.242282470703126,3.4766800857543942,9.30910496749878,0.7827543052673339
1790690963802320100,9.252320068359374,3.2939725715637205,9.26989991531372,0.40566754379272457
1790690963812358100,9.262358154296875,2.6364649406433105,9.137919548797607,0.0613514175415039
1790690963822396200,9.272396240234375,4.1572319076538085,9.350105670928954,0.5211877738952636
1790690963832434200,9.28243408203125,4.655674765777587,9.5247327545166,0.3778349494934082
1790690963842472200,9.29247216796875,3.5422213562011717,9.390657461547852,0.6094739601135254
1790690963852510200,9.30251025390625,3.5329438247680662,9.356240812683104,0.45669396667480466
1790690963862548200,9.31254833984375,3.822941500854492,9.32047742538452,0.3247136001586914
1790690963872586200,9.322586181640625,3.6056677001953124,9.255385067749023,0.3372831588745117
1790690963882624300,9.332624267578124,3.5797803947448728,9.15512787322998,0.2885013000488281
1790690963892662300,9.342662353515625,3.761440445709228,9.081057259368896,0.13691840744018555
1790690963902700300,9.3527001953125,3.700388303375244,9.054721041107177,0.08813654861450194
1790690963912738300,9.36273828125,3.404704398345947,8.985887743377685,0.12734160079956053
1790690963922776300,9.3727763671875,3.087323040771484,8.877250843048095,0.3660135787963867
1790690963932814000,9.38281396484375,3.0545524055480957,8.876053742218017,0.6057330200195312
1790690963942853000,9.39285302734375,3.010259674835205,9.007136283111572,0.8125321884155273
1790690963952891400,9.402891357421876,3.725976333618164,9.050082275390624,0.9914987625122069
1790690963962929200,9.41292919921875,3.7975031082153317,9.141061938476563,0.951844797515869
1790690963972967200,9.42296728515625,2.954594486236572,9.21154124984741,1.1161468864440918
1790690963983005200,9.433005126953125,2.9146412460327147,9.226804285430907,1.082777700805664
1790690963993043200,9.443043212890625,3.132064684295654,9.248052825164795,0.8942343200683593
1790690964003081200,9.453081298828126,3.0132524269104004,9.443778810882568,0.8875006278991698
1790690964013119200,9.463119140625,3.319261326599121,9.584288520812988,0.8904933799743652
1790690964023156700,9.47315673828125,3.6768951995849606,9.520692539215087,1.005564697265625
1790690964033194500,9.483194580078125,3.4925416717529294,9.49300958251953,1.1333552108764648
1790690964043232800,9.493232666015626,3.3233015419006344,9.456049094390869,1.126920793914795
1790690964053270500,9.5032705078125,3.1578023521423337,9.398887529754639,1.0108020133972166
1790690964063308800,9.513308837890625,3.2327707916259762,9.383923769378661,0.8168716789245605
1790690964073346600,9.5233466796875,3.3144729232788084,9.34636473083496,0.6643909606933593
1790690964083384600,9.533384521484376,3.356820365142822,9.245658623504639,0.7056909393310546
1790690964093422600,9.543422607421874,3.4132337417602536,9.162759391021728,0.7013514488220215
1790690964103460600,9.553460693359375,3.4352304695129394,9.166949243927002,0.8931868568420409
1790690964113498600,9.56349853515625,3.3535283378601073,9.132532595062255,1.0395324333190918
1790690964123536600,9.57353662109375,3.285293590545654,8.986935206604004,1.2835913650512694
1790690964133575700,9.58357568359375,3.2140660911560057,8.992471797943114,1.382202545928955
1790690964143613700,9.59361376953125,3.192817551422119,9.004891719055175,1.251868193054199
1790690964153651700,9.603651611328125,3.2071827613830566,9.116222096252441,1.151162085723877
1790690964163689700,9.613689697265626,3.1854853088378903,9.01386997528076,1.1584943283081055
1790690964173727500,9.6237275390625,3.1507693847656246,9.029282648468017,1.0111012886047364
1790690964183765800,9.633765869140625,3.1063270164489745,9.076268856048584,0.8110358123779297
1790690964193803500,9.643803466796875,3.0729578308105467,9.333046984100342,0.723946726989746
1790690964203841800,9.653841796875,3.1311668586730956,9.616610243225097,1.1451765815734862
1790690964213879600,9.663879638671874,3.437475033569336,9.632920742034912,1.433827519226074
1790690964223917800,9.673917724609375,4.16845472793579,9.733626849365233,0.6015431671142578
1790690964233955600,9.68395556640625,3.6400843490600585,9.41639512939453,0.7149684707641601
1790690964243993600,9.69399365234375,3.2302269523620604,9.318382498931884,0.3942950859069824
1790690964254031600,9.704031494140626,3.4715924072265625,9.066991324615477,0.2567781280517578
1790690964264069600,9.714069580078124,3.548356497955322,8.807519719696044,0.3365349708557129
1790690964274107600,9.724107666015625,3.3898902755737303,8.614936123657227,0.4354454269409179
1790690964284145700,9.734145751953125,3.4712931320190425,8.449736209106446,0.48766895065307614
1790690964294183400,9.744183349609376,3.4454058265686034,8.332121052551269,0.5732616600036621
1790690964304221700,9.7542216796875,3.2887352554321287,8.313266714477539,0.47719431838989257
1790690964314259500,9.764259521484375,2.959083614349365,8.512284727478027,0.6253355461120605
1790690964324298500,9.774298583984375,3.8147114326477047,8.866177660369873,0.7228992637634277
1790690964334336500,9.78433642578125,3.70293214263916,9.18086554107666,0.483928010559082
1790690964344374800,9.794374755859375,3.344101168823242,9.335291548156738,0.46372693405151366
1790690964354412500,9.80441259765625,3.3569700027465816,9.380781379699707,0.5156511825561523
1790690964364450800,9.814450927734375,3.5568858413696285,9.548974046325682,0.6262333717346191
1790690964374488600,9.824488525390626,3.7158009765625,9.667636666107176,0.7505822204589844
1790690964384526600,9.834526611328124,3.7671266746520993,9.701454764556884,0.8037035697937012
1790690964394564600,9.844564697265625,3.5972879943847653,9.660902973937988,0.7784148147583008
1790690964404602600,9.8546025390625,3.0985458610534664,9.496151972198486,0.7281365798950195
1790690964414640600,9.864640625,2.954744123840332,9.309553880310059,0.9261071296691894
1790690964424678700,9.8746787109375,3.332130160522461,9.116222096252441,1.0506056159973145
1790690964434716700,9.884716552734375,3.680636139678955,8.970774345397949,0.8245031967163086
1790690964444754700,9.894754638671875,3.7467759605407713,8.876502655029297,0.9612719665527343
1790690964454792400,9.90479248046875,3.57514162902832,8.81051247177124,1.0800842239379882
1790690964464830700,9.914830810546874,3.4114380905151367,8.888623300933837,1.098788924407959
1790690964474868500,9.924868408203125,3.466055815887451,9.556156651306152,1.204732347869873
1790690964484906800,9.93490673828125,3.299808438110351,9.65940659790039,1.1786954048156737
1790690964494944500,9.944944580078126,3.6261680519104003,9.489418280029296,1.2161048057556152
1790690964504982800,9.954982666015624,3.8242882392883297,9.351452409362793,0.5128080680847168
1790690964515021600,9.965021484375,3.303100465393066,9.178920252227783,0.5442319648742675
1790690964525059600,9.9750595703125,3.437325395965576,8.991424334716797,0.6958148574829102
1790690964535097600,9.98509765625,3.8799534278869627,9.014169250488282,0.7570166374206543
1790690964545135600,9.995135498046874,3.692607147979736,9.179069889831542,0.8527847038269043
1790690964555173600,10.005173583984375,3.371634487915039,9.284414762878418,0.8149263900756836
1790690964565211600,10.015211669921875,3.269432004547119,9.211391612243652,0.7248445526123046
1790690964575249700,10.025249755859376,3.2659903396606444,9.112481156158447,0.6446387969970703
1790690964585287700,10.03528759765625,3.5344402008056637,8.980500789642333,0.6587047317504883
1790690964595325700,10.04532568359375,3.79870020904541,8.83654941482544,0.6567594429016113
1790690964605363700,10.05536376953125,3.714304600524902,8.830713548278808,0.7091326042175292
1790690964615401500,10.0654013671875,3.4620156005859375,8.91211640472412,0.7606079399108886
1790690964625439700,10.075439697265624,3.2932243835449215,8.952368920135498,0.8156745780944824
1790690964635477500,10.0854775390625,3.333476898956299,9.052326839447021,0.9325415466308593
1790690964645515800,10.095515869140625,3.4920927589416504,9.083451461029052,0.8777741836547851
1790690964655553500,10.105553466796875,3.7563527671813963,9.179369165039063,0.72140288772583
1790690964665591800,10.115591796875,3.7397429931640622,9.258228182220458,0.5187935722351074
1790690964675629600,10.125629638671874,3.784035723876953,9.25718071899414,0.3585316986083984
1790690964685667600,10.13566748046875,3.8079777404785156,9.276184694671631,0.4038718925476074
1790690964695705600,10.14570556640625,3.6284126159667967,9.344419441986084,0.5134066184997559
1790690964705743600,10.15574365234375,3.6923078727722167,9.38497123260498,0.6189011291503906
1790690964715781600,10.16578173828125,3.6215292861938475,9.374496600341796,0.7769184387207031
1790690964725820400,10.1758203125,3.4855087043762203,9.360281027984618,0.948702407836914
1790690964735858700,10.185858642578125,3.5344402008056637,9.335141910552977,1.0848726272583007
1790690964745896700,10.195896728515624,3.69664736328125,9.273491217803954,1.1195885513305663
1790690964755934700,10.205934814453125,3.698592652130127,9.192387636566162,1.0951976219177246
1790690964765972700,10.21597265625,3.5799300323486327,9.087042763519287,1.1234791290283201
1790690964776010500,10.226010498046875,3.4683003799438477,9.019855479431152,1.0815805999755859
1790690964786048800,10.236048828125,3.5058594184875487,8.942343200683593,0.9949404273986816
1790690964796086500,10.24608642578125,3.4626141510009765,8.903138148498535,0.967257470703125
1790690964806124800,10.256124755859375,3.5693057624816893,8.908674739837647,1.0236708473205567
1790690964816162600,10.26616259765625,3.6267666023254392,8.99576382522583,1.031003089904785
1790690964826200800,10.276200927734376,3.6516064445495604,9.058162705993652,0.9192237998962401
1790690964836238600,10.286238525390624,3.610755378723144,9.038859455108643,0.6842927619934082
1790690964846276600,10.296276611328125,3.6572926734924316,9.138069186401367,0.5737105728149414
1790690964856314600,10.306314697265625,3.5052608680725097,9.16141265258789,0.4465186096191406
1790690964866352600,10.3163525390625,3.3725323135375973,9.137171360778808,0.4670189613342285
1790690964876390700,10.326390625,3.494187685394287,9.158569538116454,0.8301894256591796
1790690964886428700,10.3364287109375,3.552695988464355,9.085097474670409,1.2472294273376463
1790690964896466400,10.346466552734375,3.206733848571777,9.030629386901856,1.0164882423400878
1790690964906504700,10.356504638671876,3.085976302337646,9.031227937316894,1.0524012672424317
1790690964916542500,10.36654248046875,3.5839702476501465,8.936656971740723,1.0773907470703123
1790690964926581500,10.37658154296875,3.76024334487915,8.986187018585204,0.8731354179382323
1790690964936619500,10.38661962890625,3.6305075424194335,8.97661021194458,0.6940192062377929
1790690964946657500,10.396657470703126,3.6342484825134274,9.049633362579344,0.1662473777770996
1790690964956695600,10.406695556640624,3.772663265991211,9.22545754699707,-0.02498947982788086
1790690964966733600,10.416733642578125,3.4488474914550777,9.210344149017333,-0.050128597259521485
1790690964976771600,10.426771484375,3.1811458183288575,9.305812940216065,-0.39968203964233395
1790690964986809600,10.4368095703125,3.6541502838134763,9.286210414123534,-0.2510918991088867
1790690964996847600,10.44684765625,3.751863639068603,9.11607245864868,0.89378540725708
1790690965006885600,10.4568857421875,3.7802947837829586,8.991723609924316,1.171512799835205
1790690965016923600,10.466923583984375,3.5303999855041504,9.14929200668335,0.9795277542114257
1790690965026962000,10.4769619140625,3.398569256591797,9.058461981201171,0.7191583236694336
1790690965037000000,10.487,3.375824340820312,9.26930136489868,0.5972036766052246
1790690965047038000,10.497037841796875,3.409941714477539,9.101258335876464,0.3892074073791504
1790690965057076000,10.507075927734375,3.3364696510314937,8.762179525756835,0.5749076736450195
1790690965067114000,10.517114013671875,3.3604116676330564,8.751555255889892,0.6052841072082519
1790690965077152000,10.527152099609374,3.4605192245483396,8.761880250549316,1.001075569152832
1790690965087190000,10.53718994140625,3.716998077392578,8.859593605804443,1.0733505317687988
1790690965097228000,10.54722802734375,3.9318776763916015,9.076119218444823,1.2189479202270508
1790690965107266000,10.55726611328125,3.5323452743530273,9.419986431884766,1.3727753768920898
1790690965117304000,10.567303955078126,2.9123966819763183,10.078840801239012,1.750011775970459
1790690965127342800,10.5773427734375,3.7078701835632324,9.567229833984374,1.239148996734619
1790690965137381000,10.587381103515625,4.517409619903564,9.50632732925415,0.8858546142578124
1790690965147419000,10.5974189453125,3.801094410705566,9.501538925933838,0.7800608283996582
1790690965157457000,10.607456787109374,3.074005294036865,9.541941078948975,1.0365396812438965
1790690965167495000,10.617494873046875,3.0047230834960934,9.332747708892821,1.432031867980957
1790690965177533000,10.627532958984375,3.2507273040771483,9.470563941955566,1.1947066284179686
1790690965187571000,10.637571044921875,3.5646669967651365,9.119364485931396,1.1815385192871093
1790690965197609000,10.64760888671875,3.812167593383789,9.143456140136719,1.0122983894348143
1790690965207647000,10.65764697265625,3.614346681213379,9.030180474090576,1.2131120536804199
1790690965217685000,10.66768505859375,3.750816175842285,8.89341170425415,1.1641805572509765
1790690965227723000,10.677722900390625,3.4727895080566404,8.770110318756103,0.8451531860351562
1790690965237761000,10.687760986328126,3.151816847991943,8.851064262390135,0.9798270294189453
1790690965247799000,10.697799072265624,3.314024010467529,8.851213899993896,0.8635586112976074
1790690965257837000,10.707837158203125,3.690961134338379,8.891915328216552,0.9147346717834473
1790690965267875000,10.717875,3.461417050170898,8.95730696105957,1.07888712310791
1790690965277913000,10.7279130859375,3.496432249450683,8.863334545898438,1.3133692481994628
1790690965287951000,10.737951171875,3.729118723297119,9.040655106353759,1.2277765388488768
1790690965297988900,10.74798876953125,3.4193688835144043,9.170989459228515,1.0452186622619628
1790690965308027100,10.758027099609375,3.235464268493652,9.287257877349854,0.7363666481018066
1790690965318065000,10.76806494140625,3.545812658691406,9.230395587921143,0.48826750106811523
1790690965328103200,10.778103271484374,3.8798037902832028,9.120860861968994,0.5199906730651855
1790690965338141000,10.788140869140625,3.6447231147766113,9.202562993621825,0.42063130416870115
1790690965348180000,10.798179931640625,3.4831145027160644,9.300425986480713,0.2198176399230957
1790690965358218000,10.808218017578126,3.1932664642333983,9.24984847640991,-0.0017956512451171875
1790690965368256000,10.818256103515624,3.359513842010498,9.331400970458985,0.6742670425415038
1790690965378294000,10.8282939453125,3.2831986640930175,9.388263259887696,0.8028057441711425
1790690965388331800,10.838331787109375,3.8640918418884276,9.192986186981202,1.0992378372192382
1790690965398370000,10.8483701171875,4.0343794349670405,9.32810894317627,0.7912836486816406
1790690965408407800,10.85840771484375,3.8798037902832028,9.194033650207519,0.6615478462219238
1790690965418446000,10.868446044921875,3.7856817375183103,9.382876306152344,0.49200844116210934
1790690965428483800,10.87848388671875,3.687669107055664,9.02195040588379,0.6076783088684081
1790690965438522000,10.888522216796876,3.4319384422302246,9.100061235046386,0.6961141326904297
1790690965448559900,10.898559814453124,2.207005017852783,9.120411949157715,1.0414777221679687
1790690965458598000,10.908597900390625,2.3630770385742186,10.753556756591797,-0.8143278396606445
1790690965468636200,10.91863623046875,6.469432160949706,8.538920220947265,1.7922095802307128
1790690965478674000,10.928673828125,1.8281226051330566,8.174103742980957,2.3925556465148925
1790690965488712200,10.938712158203124,1.6326958946228027,7.57794752960205,1.1875240234375
1790690965498750000,10.94875,4.058620726776123,7.880963677215576,1.0170867927551268
1790690965508788000,10.9587880859375,3.2664392524719235,9.488969367218017,-0.7417536018371581
1790690965518826000,10.968825927734375,2.8911481422424314,9.477896184539794,0.2154781494140625
1790690965528864000,10.978864013671876,4.19479094619751,9.88954923248291,0.1575683967590332
1790690965538902000,10.988902099609374,3.67120897064209,10.130316136932372,0.3827729904174804
1790690965548940000,10.99893994140625,3.16663097076416,9.777171392059326,1.2657844902038573
1790690965558979000,11.00897900390625,3.3711855751037594,9.853037657165526,1.3702315376281737
1790690965569016800,11.019016845703124,3.9450457855224608,9.625289224243163,1.3498808235168456
1790690965579055000,11.02905517578125,3.650558981323242,9.252093040466308,1.1674725845336913
1790690965589092900,11.0390927734375,1.9829975250244138,8.774150534057616,1.3513771995544432
1790690965599131000,11.049130859375,6.763769327545166,8.738536784362793,1.994519620513916
1790690965609169000,11.0591689453125,3.056198419189453,8.742576999664307,1.3284826461791992
1790690965619207000,11.06920703125,1.6904560096740722,8.493580027008056,0.17223288192749023
1790690965629245000,11.079244873046875,3.5595793182373043,8.62496184310913,-0.10564414825439453
1790690965639283000,11.089282958984375,3.0892683296203614,8.932916031646728,0.38756139373779297
1790690965649321000,11.099321044921876,3.168426622009277,9.012523236846924,1.1891700370788574
1790690965659359000,11.10935888671875,3.955670055389404,8.92543415145874,1.0893617553710937
1790690965669397000,11.11939697265625,3.882347629547119,9.088688777160645,0.6121674369812011
1790690965679435000,11.12943505859375,3.605966975402832,9.169343445587158,0.37768531188964843
1790690965689473000,11.13947314453125,3.7030817802429197,9.290250629425048,0.15562310791015624
1790690965699511000,11.149510986328124,3.3520319618225094,9.41654476699829,0.4730044654846191
1790690965709549000,11.159549072265625,3.43493119430542,9.452008879089355,0.6664858871459961
1790690965719587000,11.169587158203125,3.7626375465393065,9.583989245605467,0.5906196220397949
1790690965729625000,11.179625,3.7517140014648436,9.627084875488281,0.6428431457519531
1790690965739662800,11.189662841796874,3.6082115394592282,9.55091933517456,0.6039373687744141
1790690965749701000,11.199701171875,3.5016695655822754,9.463680612182616,0.4147954376220703
1790690965759739000,11.20973876953125,3.404854035949707,9.228300661468506,0.37753567428588863
1790690965769777200,11.219777099609376,3.3963246925354,8.954613484191894,0.5967547637939453
1790690965779815000,11.22981494140625,3.3209073402404785,8.757241484832763,0.6745663177490234
1790690965789854000,11.23985400390625,3.2418986854553222,8.876652292633056,0.5753565864562988
1790690965799892000,11.24989208984375,3.6578912239074706,8.970774345397949,0.6073790336608886
1790690965809930000,11.259929931640626,3.595791618347168,8.96419029083252,0.7140706451416016
1790690965819968000,11.269968017578124,3.503764492034912,9.09796630859375,0.8060977714538574
1790690965830005800,11.280005859375,3.624522038269043,9.274837956237793,0.7875427085876464
1790690965840044000,11.2900439453125,3.708768009185791,9.324068727874755,0.7921814743041992
1790690965850082000,11.30008203125,3.274519683074951,9.291896643066405,0.5473743545532226
1790690965860120000,11.3101201171875,3.343053705596924,9.290250629425048,0.4122515983581543
1790690965870158000,11.320157958984375,-2.7205612739562985,8.993668898773192,1.4030021728515625
1790690965880196000,11.330196044921875,10.443358003997803,9.081805447387694,0.3624222763061523
1790690965890234000,11.340234130859375,2.0210054763793943,10.12552773361206,1.6675614562988281
1790690965900271900,11.35027197265625,2.0210054763793943,8.308627948760986,2.4440309822082518
1790690965910310100,11.36031005859375,5.195267964935303,8.962544277191162,0.7839514060974121
1790690965920348000,11.370347900390625,3.0225299583435055,8.828768259429932,1.268029054260254
1790690965930386200,11.38038623046875,3.0850784767150876,8.903736698913574,0.8366238426208495
1790690965940424000,11.390423828125,2.670432676696777,9.046191697692871,0.7870937957763672
1790690965950462200,11.400462158203124,3.1302690330505367,9.21154124984741,1.5569792671203613
1790690965960500000,11.4105,4.230105420684814,9.418340418243409,1.3175591011047363
1790690965970538000,11.4205380859375,3.8501755447387693,9.288155702972412,1.1412860038757324
1790690965980576000,11.430575927734376,3.0392893699645995,9.297882147216797,1.0702081420898437
1790690965990614000,11.440614013671874,3.0214824951171875,9.32032778778076,1.283890640258789
1790690966000652000,11.450652099609375,3.359513842010498,9.309254605102538,1.1418845542907714
1790690966010690000,11.46068994140625,3.2320226036071777,9.367762908172606,0.9570821136474609
1790690966020729000,11.47072900390625,3.3366192886352537,9.351602046966553,0.9548375495910644
1790690966030767600,11.480767578125,3.647117316436767,9.109488404083251,0.5880757827758789
1790690966040805600,11.4908056640625,3.722534668731689,8.228721468353271,-0.13347674255371092
1790690966050843600,11.50084375,3.695749537658691,8.898499382781981,0.17268179473876952
1790690966060881700,11.510881591796876,2.9109003059387204,9.470563941955566,0.8337807281494141
1790690966070919700,11.520919677734375,3.0117560508728025,9.35953283996582,0.9350853858947753
1790690966080957700,11.530957763671875,3.429095327758789,9.652672905731201,0.7727285858154297
1790690966090995500,11.540995361328125,3.3379660270690916,9.53834977645874,0.7754220626831054
1790690966101033700,11.55103369140625,3.563020983123779,9.542988542175292,0.8137292892456054
1790690966111071500,11.561071533203124,3.644872752380371,9.405471584320068,0.7603086647033691
1790690966121109800,11.57110986328125,3.3035493782043455,9.239373844146728,0.8638578865051268
1790690966131147500,11.5811474609375,3.150619747161865,9.178471339416504,1.2003928573608398
1790690966141185800,11.591185791015626,3.1208418640136717,9.09781667098999,1.3157634498596191
1790690966151223600,11.6012236328125,3.0750527572631836,9.106794927215576,1.3676876983642576
1790690966161261600,11.611261474609375,3.1597476409912106,9.066542411804198,1.3079822944641113
1790690966171299600,11.621299560546875,3.318363500976562,9.032574675750732,1.0184335311889647
1790690966181337600,11.631337646484376,3.3583167411804196,9.015515988922118,0.7228992637634277
1790690966191375600,11.641375732421874,3.3247979179382323,9.07267755355835,0.7056909393310546
1790690966201413600,11.65141357421875,3.1949124778747557,9.179069889831542,0.835726016998291
1790690966211451600,11.66145166015625,3.283348301696777,9.273640855407715,0.9751882637023925
1790690966221489700,11.67148974609375,3.194164289855957,9.272743029785156,1.2078747375488281
1790690966231527700,11.681527587890624,3.04527487411499,9.306561128234863,1.3639467582702636
1790690966241566700,11.691566650390625,3.259855197906494,9.375992976379393,1.4233528869628906
1790690966251604500,11.7016044921875,3.5558383781433105,9.39739115371704,1.162534543609619
1790690966261642800,11.711642822265626,3.4036569351196286,9.330802420043945,0.9994295555114745
1790690966271680500,11.721680419921874,3.1754595893859863,9.2826191116333,0.881664761352539
1790690966281718800,11.73171875,3.2501287536621093,9.245060073089599,0.6908768165588378
1790690966291756500,11.741756591796875,3.2513258544921873,9.203460819244384,0.6516717643737793
1790690966301794800,11.751794921875,3.0151977157592773,9.195081113433837,1.1649287452697754
1790690966311832600,11.76183251953125,2.4021324531555175,9.098265583801268,1.9975123725891113
1790690966321870600,11.77187060546875,3.319111688995361,9.220669143676757,1.6623241401672362
1790690966331908600,11.78190869140625,4.3436803619384765,8.93875189819336,0.8083423355102538
1790690966341946600,11.791946533203125,2.5290251411437987,9.21303762588501,1.2699743431091308
1790690966351984600,11.801984619140624,0.9515455223083495,9.03392141418457,1.5596727439880371
1790690966362022700,11.812022705078125,3.56242243270874,9.057115242767333,0.6498761131286621
1790690966372060400,11.822060302734375,7.1297829063415525,8.780734588623046,-1.209071838378906
1790690966382098700,11.8320986328125,3.1221886024475096,9.466523726654053,-0.8470984748840331
1790690966392136400,11.842136474609376,2.1248539733886718,9.221417331695555,-0.514603719329834
1790690966402174700,11.8521748046875,4.087201509094238,8.844480207824706,-0.6711246528625487
1790690966412212700,11.862212646484375,2.9043162513732907,9.274538681030274,0.24166473007202147
1790690966422250800,11.872250732421875,2.703951499938965,9.324218365478515,1.0362404060363768
1790690966432288800,11.882288818359376,3.423708374023437,9.311050256347656,1.6992846282958984
1790690966442326500,11.892326416015624,0.702847824859619,10.174459230041503,-0.8951321456909179
1790690966452364800,11.90236474609375,0.4649240348815918,9.463680612182616,-2.279878530883789
1790690966462402600,11.912402587890625,4.248660483551025,9.894786548614501,-0.7401075881958007
1790690966472440800,11.92244091796875,12.620136225891113,8.928875816345215,0.3296516410827637
1790690966482479600,11.932479736328125,4.373757520294189,9.541641803741454,0.05282207412719726
1790690966492517600,11.942517578125,-0.6263830093383789,9.30177272491455,-0.2045546043395996
1790690966502555600,11.9525556640625,1.0366893188476562,8.796296899414061,0.405368268585205
1790690966512593700,11.96259375,3.3783681800842285,8.541015147399902,1.268029054260254
1790690966522631700,11.972631591796874,6.785915692901611,8.769062855529784,1.51942022857666
1790690966532669400,11.98266943359375,2.4124574478149414,9.004891719055175,0.9118915573120117
1790690966542707700,11.992707763671875,2.476352704620361,8.846126221466063,0.7053916641235352
1790690966552745500,12.002745361328126,4.324227473449707,8.777592198944092,0.5921159980773926
1790690966562783700,12.01278369140625,4.052784860229492,9.066542411804198,0.3963900123596191
1790690966572821500,12.022821533203125,3.0761002204895016,9.389609998321532,-0.3510498184204101
1790690966582859800,12.03285986328125,3.4944869606018063,9.04005655593872,-0.8967781593322753
1790690966592897500,12.0428974609375,2.8176760787963864,9.070432989501953,-1.3504793739318848
1790690966602935600,12.052935546875,3.0002339553833006,8.751106343078613,-0.7594108390808105
1790690966612973600,12.0629736328125,4.621108479309082,8.896853369140624,-0.23597850112915036
1790690966623011600,12.073011474609375,3.680636139678955,9.372700949096679,0.3526958320617676
1790690966633049600,12.083049560546876,3.9318776763916015,9.457545470428466,0.5361515342712402
1790690966643087600,12.093087646484374,4.162169948577881,9.609427638244629,0.6910264541625977
1790690966653126000,12.1031259765625,2.531868255615234,9.260023833465576,1.3025953407287596
1790690966663163600,12.11316357421875,3.225288911437988,9.708936644744872,2.1109376762390135
1790690966673201700,12.12320166015625,3.785232824707031,8.87994431991577,2.7856536315917966
1790690966683239700,12.13323974609375,4.197484423065185,9.038410542297363,1.7178396911621092
1790690966693277700,12.143277587890625,3.821594762420654,9.108889853668213,0.7459434547424316
1790690966703315700,12.153315673828125,3.8754642997741695,8.952817832946776,0.8125321884155273
1790690966713353700,12.163353759765625,3.6668694801330566,8.858396504974365,0.91293902053833
1790690966723391500,12.1733916015625,2.9050644393920897,8.846275859069824,0.9759364517211914
1790690966733430500,12.183430419921875,2.940229276275635,8.808567182922364,1.1927613395690917
1790690966743468800,12.19346875,3.519775715637207,8.850615349578858,1.2987047630310058
1790690966753506600,12.203506591796875,3.554641277313232,9.000701866149901,0.9835679695129393
1790690966763544600,12.213544677734374,3.384802597045898,9.140313750457763,0.9237129280090332
1790690966773582600,12.22358251953125,3.5763387298583984,9.25104557723999,0.8429086219787597
1790690966783620600,12.23362060546875,3.586214811706543,9.322871627044677,0.8668506385803222
1790690966793658600,12.24365869140625,3.460818499755859,9.433603453826903,0.8354267417907715
1790690966803696600,12.253696533203126,3.0698154411315914,9.555109188079834,0.7656956184387207
1790690966813734700,12.263734619140624,3.2487820152282714,9.479542198181152,0.6913257293701172
1790690966823772700,12.273772705078125,3.8899791473388667,9.393650213623046,0.7827543052673339
1790690966833810700,12.283810791015625,3.9815573608398434,9.462184236145019,0.7472901931762694
1790690966843848700,12.2938486328125,3.4989760887145995,9.44228243484497,0.6721721160888672
1790690966853886700,12.30388671875,3.103334264373779,9.318532136535644,0.485873299407959
1790690966863924700,12.3139248046875,3.333476898956299,9.163058666229247,0.5421370384216309
1790690966873962800,12.323962646484375,3.7796962333679196,9.124302526855468,0.49589901885986326
1790690966884000500,12.33400048828125,3.585316986083984,9.08464856185913,0.4569932418823242
1790690966894038800,12.344038818359374,3.3822587577819823,8.943390663909911,0.6006453414916992
1790690966904076500,12.35407666015625,3.736151690673828,8.877550118255614,0.5919663604736328
1790690966914114800,12.36411474609375,3.827879541778564,8.889970039367675,0.5117606048583984
1790690966924152600,12.374152587890626,3.4295442405700682,9.0014500541687,0.44966099929809566
1790690966934190800,12.38419091796875,3.539527879333496,9.356839363098144,0.3324947555541992
1790690966944228600,12.394228515625,4.607491457366943,9.641599723052979,0.7004536231994628
1790690966954266600,12.4042666015625,3.8633436538696286,9.638756608581543,0.5979518646240234
1790690966964304600,12.4143046875,2.756175023651123,9.363124142456055,0.7568669998168945
1790690966974342700,12.4243427734375,3.508852170562744,9.07222864074707,0.7758709754943848
1790690966984381700,12.434381591796875,4.052784860229492,8.68900673751831,0.9861118087768554
1790690966994419500,12.44441943359375,3.141641490936279,8.609848445129394,0.7637503295898437
1790690967004457700,12.454457763671876,2.664746447753906,8.576179984283447,0.6889315277099609
1790690967014495500,12.46449560546875,2.953247747802734,8.417863399505615,0.4791396072387695
1790690967024533800,12.47453369140625,1.8227356513977049,8.222137413787841,-0.15936404800415038
1790690967034570500,12.484570556640625,3.3521815994262694,8.37641378326416,0.9066542411804198
1790690967044608500,12.4946083984375,4.486584273529052,9.480140748596192,-0.2362777763366699
1790690967054646500,12.504646484375,4.567538217163086,10.052055670166014,0.0948702407836914
1790690967064684300,12.514684326171874,3.7888241271972656,10.33008233795166,0.723946726989746
1790690967074722600,12.52472265625,4.122964896392822,9.860070624542235,1.7438766342163086
1790690967084760300,12.53476025390625,3.216310655212402,9.611971477508545,2.2074539306640624
1790690967094798600,12.544798583984376,3.305793942260742,10.147225186157225,0.7104793426513671
1790690967104836400,12.55483642578125,3.7318122001647946,9.330652782440184,1.599177071380615
1790690967114874600,12.56487451171875,3.674052085113525,9.020753305053711,1.8272247795104979
1790690967124912400,12.574912353515625,2.881272060394287,9.258527457427977,0.6726210289001464
1790690967134950400,12.584950439453126,4.091092086791992,8.774749084472656,0.8325836273193359
1790690967144988400,12.594988525390624,3.4472014778137203,8.500912269592284,1.0920552322387695
1790690967155026400,12.6050263671875,2.680608033752441,8.49013836212158,0.9877578224182129
1790690967165064400,12.615064453125,3.9600095458984375,8.455272800445556,1.0280103378295897
1790690967175102500,12.6251025390625,3.7793969581604,8.742576999664307,0.996586441040039
1790690967185140500,12.635140380859376,3.506009056091308,8.975113835906981,0.8607154968261719
1790690967195178500,12.645178466796875,3.612251754760742,8.984391367340088,0.8608651344299316
1790690967205216500,12.655216552734375,3.529801435089111,9.140912300872802,0.9416694404602051
1790690967215254500,12.665254638671875,3.832518307495117,9.377040439605713,0.9029133010864258
1790690967225292500,12.67529248046875,3.56885684967041,10.04277813873291,0.8702923034667969
1790690967235331600,12.68533154296875,3.481318851470947,10.76986725540161,0.7466916427612305
1790690967245369300,12.695369384765625,3.4413656112670896,10.58476553955078,0.4112041351318359
1790690967255407600,12.70540771484375,3.4871547180175777,10.186430238342284,0.4961982940673828
1790690967265445400,12.7154453125,3.6420296379089354,10.180744009399413,0.5443816024780274
1790690967275483400,12.7254833984375,3.227383837890625,9.539546877288817,0.7885901718139648
1790690967285521400,12.735521484375,3.2200515953063964,9.130736943817139,1.13649760055542
1790690967295559400,12.745559326171875,3.435978657531738,8.82936680984497,1.047762501525879
1790690967305597400,12.755597412109376,3.7505169006347656,8.755445833587647,0.8204629814147949
1790690967315635500,12.765635498046874,4.226963031005859,8.509890525817871,0.8059481338500976
1790690967325673500,12.775673583984375,3.6079122642517087,8.182633086395263,0.3895066825866699
1790690967335711500,12.78571142578125,3.949983826446533,8.332869240570068,1.1231798538208007
1790690967345749500,12.79574951171875,4.041861315155029,8.553435068511963,0.9051578651428223
1790690967355787500,12.80578759765625,3.8557121360778805,8.434323535919189,0.6606500205993652
1790690967365825500,12.815825439453125,3.9815573608398434,7.967903124999999,0.9305962577819824
1790690967375863600,12.825863525390625,4.085555495452881,7.548768196868896,1.0574889457702636
1790690967385901600,12.835901611328126,3.9680899765014646,8.213308795166014,0.8601169464111328
1790690967395939600,12.845939697265624,4.244620268249512,8.30578483428955,0.9516951599121093
1790690967405977600,12.8559775390625,3.641730362701416,8.28064571685791,1.3376105400085447
1790690967416015400,12.866015380859375,3.6324528312683104,8.320150044250488,1.6439187149047851
1790690967426053600,12.8760537109375,3.715052788543701,8.626907131958008,2.0718822616577146
1790690967436091400,12.88609130859375,3.3372178390502927,9.21917276763916,1.785625525665283
1790690967446129700,12.896129638671875,3.1794998046874996,9.51231283340454,1.2087725631713866
1790690967456167400,12.90616748046875,3.3521815994262694,9.389161085510253,1.3105261337280272
1790690967466205700,12.916205810546876,3.72178648071289,9.19418328781128,1.2424410240173338
1790690967476243500,12.926243408203124,4.889408702850342,9.312995545196532,0.7694365585327148
1790690967486281500,12.936281494140625,4.653579839324951,9.460089309692382,0.6859387756347656
1790690967496319500,12.946319580078125,3.9852983009338376,9.464578437805175,0.7809586540222168
1790690967506358300,12.956358154296876,4.423437204742432,9.158419900512694,1.070058504486084
1790690967516396500,12.966396484375,4.57127915725708,8.724620487213134,1.2892775939941405
1790690967526434300,12.976434326171875,4.597914650726318,8.269722171783446,1.424998900604248
1790690967536472600,12.98647265625,4.781220715332031,8.321945695495605,1.4914379966735838
1790690967546510300,12.99651025390625,4.5693338684082025,8.264185580444336,0.9332897346496581
1790690967556548600,13.006548583984374,4.187009790802001,7.997531370544433,0.7366659233093261
1790690967566586400,13.01658642578125,4.120570694732666,7.9655089233398435,0.4369418029785156
1790690967576624400,13.026624267578125,3.351283773803711,8.50450357208252,-0.3796306007385254
1790690967586662700,13.03666259765625,4.076128326416016,8.500014443969727,1.2330138549804688
1790690967596700400,13.046700439453126,3.6360441337585447,8.307281210327147,1.2171522689819336
1790690967606738700,13.05673876953125,4.077175789642334,8.640374516296387,1.0377367820739745
