time,seconds_elapsed,z,y,x
1790690954612477000,0.062476806640625,-0.27924071975052356,-0.39880145741552114,-0.03611344284527004
1790690954622516000,0.072515869140625,-0.30426293280422684,-0.35809096910357474,0.48383719047047197
1790690954632553700,0.0825537109375,-0.2703857976436615,-0.050070437331497665,0.5015925908589736
1790690954642592000,0.092592041015625,-0.3122223673760891,0.27744010006934405,0.035389475952275096
1790690954652629800,0.102629638671875,-0.4107312569230795,0.37401656024903057,-0.13884996002465486
1790690954662668000,0.11266796875,-0.5905629234164953,0.5460092036798596,-0.16690657233819364
1790690954672705800,0.122705810546875,-0.3151063983798027,0.3274497471243143,0.1410132755383849
1790690954682743800,0.132743896484375,-0.33175708892941475,0.075514090667665,0.21014270667023954
1790690954692781800,0.14278173828125,-1.1133674848586321,-0.018787410317361353,0.16909056531377137
1790690954702819800,0.15281982421875,-1.1816688676685094,-0.025282033033668994,0.41229678920675067
1790690954712857900,0.16285791015625,-0.8443827861845493,0.14363076456040144,0.307180427686125
1790690954722896000,0.172895751953125,-0.4188865063279867,0.41574908508509395,0.061847640093229704
1790690954732934000,0.182933837890625,0.015467618244886397,0.6993637821361423,-0.06576163519918918
1790690954742972000,0.192971923828125,0.40800738491714,0.6188590435743332,-0.18528861672505736
1790690954753010000,0.203010009765625,0.2426478958904743,0.5674564808562398,-0.46680751054063435
1790690954763048000,0.2130478515625,0.024430092379450798,0.3202127816081047,-0.295843041113764
1790690954773086000,0.2230859375,-0.09083470165729522,0.14719342547804115,-0.1300206107504666
1790690954783124000,0.2331240234375,-0.06696575029194354,0.19003303477317093,-0.09296462635807692
1790690954793162000,0.243161865234375,0.1068131920337677,0.17383856355845928,-0.04229001258835196
1790690954803200000,0.253199951171875,0.20834230618476868,0.0962014893874526,-0.09774170456677675
1790690954813238800,0.26323876953125,0.3049064914047718,0.15920856518149376,-0.1800751929257065
1790690954823277000,0.273277099609375,0.5717021556019782,0.11848287930041551,-0.044563364347815514
1790690954833314800,0.283314697265625,0.7738958760291338,0.17390666035860775,-0.0436107397980988
1790690954843352800,0.293352783203125,1.0083563738107681,0.34187019440382715,-0.25536124699115753
1790690954853390800,0.303390869140625,0.9426268873155117,0.5351376810535788,-0.3741906016416848
1790690954863428900,0.313428955078125,0.5139256739377975,0.5459419836625456,-0.2488141634352505
1790690954873467000,0.323466796875,0.5845534538686276,0.3862918121933937,-0.16777005729973316
1790690954883505000,0.3335048828125,0.6457055494457483,0.3865674142643809,-0.4165758912980556
1790690954893543000,0.34354296875,0.549440054911375,0.3335425110414624,-0.6662569006957113
1790690954903581000,0.353580810546875,0.5405471388816833,0.30659371383935213,-0.750678812701255
1790690954913618700,0.36361865234375,0.6570178015768527,0.3391229415223002,-0.6269489726580679
1790690954923657000,0.373656982421875,0.723484370175004,0.498107634820044,-0.4176365062668919
1790690954933694700,0.38369482421875,0.6372317356109619,0.7296300333231687,-0.2888036439962685
1790690954943733000,0.39373291015625,0.46642450257241724,0.6922898982271551,-0.024414018027484417
1790690954953770800,0.403770751953125,0.5526648621767759,0.7252379358440637,-0.1843405222199857
1790690954963809000,0.41380908203125,0.7212339608997106,0.7796700755164027,-0.5409428602010011
1790690954973847000,0.423846923828125,0.7638035210818052,0.6037666883826256,-0.5656278041243553
1790690954983884800,0.433884765625,0.6218646551311016,0.6891629983782768,-0.7187950433149933
1790690954993923000,0.443923095703125,0.43952480520904064,0.7459601136162877,-0.6792107825540006
1790690955003961900,0.4539619140625,0.3675824355483055,0.7052309206038713,-0.3174443398080766
1790690955013999900,0.463999755859375,0.27570319327414033,1.0807231063634157,-0.00200447169020772
1790690955024038100,0.4740380859375,0.1677110205888748,1.4389704350724815,-0.03693418464362621
1790690955034076000,0.484075927734375,0.298309577357769,1.9946131440162658,0.29184534977972504
1790690955044114200,0.4941142578125,0.2977396685153246,2.957031942516565,1.0112461039029061
1790690955054152000,0.50415185546875,-0.29203181226253505,3.1236487381279465,1.3733685204796493
1790690955064190000,0.51418994140625,-0.6735363901793956,2.2658552662283182,0.9271234671048819
1790690955074228000,0.52422802734375,-0.9304846141010522,2.1486609654337165,0.8607241185240447
1790690955084266000,0.534265869140625,-0.9706693249732256,1.9975310772895811,0.9173011612705886
1790690955094304000,0.544303955078125,-1.020749406915903,1.895692751058936,1.0011972958363593
1790690955104342000,0.554342041015625,-0.9225549901455641,2.0405705930709837,0.9344279448993503
1790690955114380000,0.564380126953125,-0.6663467709362506,2.1020570351690053,0.7394133953865617
1790690955124418000,0.57441796875,-0.5515864192903042,1.8366010951429605,0.6421511448998004
1790690955134455800,0.584455810546875,-0.3228630038559437,1.686545558232069,0.35961744801849127
1790690955144494000,0.594494140625,-0.13060440198779105,1.724732957807183,0.11905403025187551
1790690955154531800,0.60453173828125,0.03831365630328655,1.694967934140563,-0.08791041170842945
1790690955164570000,0.614570068359375,0.1272743807822466,1.6241846713870762,-0.15893186713196336
1790690955174608000,0.62460791015625,0.22790099313557147,1.7079975115835666,-0.24959829955026505
1790690955184646100,0.634646240234375,0.2963455838084221,1.6960814483404159,-0.18574264410287142
1790690955194684000,0.644683837890625,0.38184476965665815,1.6298972038149833,-0.18399974595829843
1790690955204723200,0.65472314453125,0.4006085068374872,1.491094882324338,-0.29166633995100855
1790690955214761000,0.664760986328125,0.39360885720849037,1.2039029113084077,-0.2133806656781584
1790690955224799000,0.674799072265625,0.12367314141988754,0.9119172762751578,-0.08933430703170597
1790690955234837000,0.6848369140625,-0.04319792121350765,0.7878449064046144,-0.11722959130369126
1790690955244875000,0.694875,-0.027841362127661702,0.7061632330179214,-0.28759835985973475
1790690955254913000,0.7049130859375,-0.25338965465724467,0.6335995165884495,-0.6036137628432363
1790690955264951000,0.714950927734375,-0.4334048610240221,0.5440332274317741,-0.9245749516658485
1790690955274989000,0.724989013671875,-0.589399724856019,0.2712731018722057,-1.0381706434465945
1790690955285027000,0.735027099609375,-0.773793000176549,0.07491349442601203,-1.088232751341164
1790690955295064800,0.74506494140625,-0.9229787685155868,-0.0956762964695692,-1.099837337482348
1790690955305103000,0.75510302734375,-1.07172556091547,-0.2871294271737337,-1.0983810742594302
1790690955315140900,0.765140869140625,-1.209430150297284,-0.5921200897306204,-1.1044178702056406
1790690955325179100,0.77517919921875,-1.465245570796728,-1.0095809471696615,-1.1184661962371318
1790690955335217000,0.785216796875,-1.7099445539981126,-1.4169763376682996,-1.1387724866848439
1790690955345255200,0.795255126953125,-1.9822914225816726,-1.6053882009804248,-1.2400874466285108
1790690955355293000,0.80529296875,-1.9240964232444762,-1.696044038939476,-1.3427043560162186
1790690955365331000,0.8153310546875,-1.8223977977454662,-1.72037476259768,-1.410827313519269
1790690955375369000,0.825368896484375,-1.751637915867567,-1.9490297889709471,-1.406541599024087
1790690955385407000,0.835406982421875,-1.7956565058141947,-2.2418349236935375,-1.4332405131183563
1790690955395446000,0.845446044921875,-1.7336919248104095,-2.3539304400444028,-1.601737861779332
1790690955405484000,0.855484130859375,-1.6512527110546826,-2.4620085374474523,-1.6141563215866683
1790690955415522000,0.86552197265625,-1.6201842035740612,-2.7450509875684976,-1.342623399734497
1790690955425560000,0.87556005859375,-1.47144296413213,-2.954291119375825,-1.1594364314638077
1790690955435598000,0.88559814453125,-1.1191074898153544,-3.004291121819615,-1.2648948478877544
1790690955445636000,0.895635986328125,-0.6731213796377181,-2.9976380936712026,-1.337010674419254
1790690955455673900,0.905673828125,-0.2961836712449789,-2.9038188232451674,-1.2320632762573658
1790690955465712000,0.915712158203125,-0.0689069474875927,-2.7490777588665485,-1.2341758844971655
1790690955475750000,0.92575,0.14018179315030574,-2.3098908073097464,-1.472591549645364
1790690955485788200,0.9357880859375,0.4399135122656822,-2.3063310690015553,-0.9768690563961863
1790690955495826000,0.945825927734375,0.39461481938064097,-2.258725852739811,-0.7116329696658998
1790690955505864200,0.9558642578125,0.4338929368019104,-2.183200948417187,-0.28043796671107407
1790690955515902000,0.96590185546875,0.29766952588856216,-2.699788535040617,-0.03390570366792381
1790690955525940000,0.97593994140625,0.14984686259627342,-2.983629442062974,0.2946419947609305
1790690955535978000,0.98597802734375,0.3205328073427081,-2.5703485006570816,0.390787296981737
1790690955546016000,0.99601611328125,0.4908972650498151,-2.594342539706826,0.45331104623824353
1790690955556054000,1.006053955078125,0.6806707721039652,-2.4317951854914424,0.2774053210169077
1790690955566092000,1.016092041015625,1.0187462503999472,-1.9634277321577072,0.11968187982663511
1790690955576131000,1.026131103515625,0.8514256904333829,-1.7515671887189148,0.18054595224261283
1790690955586169000,1.036169189453125,0.6300304259300231,-1.4521131175011395,0.3204768393717706
1790690955596207000,1.04620703125,0.5318862780421972,-1.2186463069319724,0.8942441108100115
1790690955606245000,1.0562451171875,0.513809061820805,-1.1571738933593034,1.2837287276953457
1790690955616283000,1.066282958984375,0.8181886067420244,-1.0534732803881168,1.303582890461385
1790690955626321200,1.076321044921875,1.2441975122958422,-0.717842564895749,1.0714547811500728
1790690955636359000,1.08635888671875,1.4305337383776902,-0.6192307994961738,0.8101251272737979
1790690955646397200,1.096397216796875,1.4621259774714708,-0.431845941144228,0.5404013737354427
1790690955656435000,1.10643505859375,1.4419108724385499,-0.27907705362141133,0.5521417150855064
1790690955666473000,1.116472900390625,1.322415893486142,-0.32010873671174045,0.7019597899787128
1790690955676511000,1.126510986328125,1.3082143496543168,-0.2427916882753372,0.8159386358581483
1790690955686549000,1.136549072265625,1.368306414784491,-0.05676116714179515,0.8826735000036656
1790690955696587000,1.1465869140625,1.311075292043388,-0.1119499704003334,0.750310710041225
1790690955706625000,1.156625,1.0915946289896965,-0.40760464933514595,0.37170214582681654
1790690955716663000,1.1666630859375,0.6759475429743528,-0.6942208662897348,0.01173851471915841
1790690955726701000,1.176701171875,0.4212298545837402,-0.9629600657701491,0.025088556288182733
1790690955736738800,1.18673876953125,0.4329056793302297,-1.0969342364519834,0.09321458253115415
1790690955746777000,1.196777099609375,0.5711088658839464,-0.9043032941401005,0.18191724059581754
1790690955756814800,1.20681494140625,0.7945277451694012,-0.5246808767080307,0.43404359731897707
1790690955766853000,1.21685302734375,0.9869324775099754,-0.1775496930360794,0.7476368146568536
1790690955776892000,1.226891845703125,1.3144944528371094,-0.06647767451405524,0.8751793448559939
1790690955786930200,1.23693017578125,1.342250474768877,-0.6122884330123662,0.6217896901987493
1790690955796968000,1.246968017578125,1.0812696343302726,-0.19473697468042372,0.8290573528893291
1790690955807006200,1.257006103515625,0.5416197365492582,0.027570728492736816,1.0955097566068173
1790690955817044000,1.2670439453125,0.17965309505611657,0.04088379905223846,1.2486271653063594
1790690955827082000,1.27708203125,0.3762020875945687,0.03074234426617622,1.2107676825113594
1790690955837120000,1.2871201171875,0.8645505449444055,-0.28228198714256286,0.9324930313140153
1790690955847158000,1.297157958984375,0.9575418401136994,-0.35131402231454845,0.9797627320110798
1790690955857196000,1.307196044921875,0.8276093460381031,-0.20340309621691702,1.1116863999038935
1790690955867234000,1.317234130859375,0.8139531611293553,-0.007243395256996154,1.077097024820745
1790690955877272000,1.32727197265625,0.939524829646945,0.037759529551863666,0.8947013530582189
1790690955887310000,1.33731005859375,0.9689522919222712,0.11139935078024864,1.071400859005749
1790690955897347800,1.347347900390625,1.2284157135352491,0.13361702780723572,0.9107479402348398
1790690955907386000,1.35738623046875,1.319279349026084,0.11819324870407581,0.876194805508852
1790690955917423900,1.367423828125,1.3721373712494969,0.2433580899864435,0.7721791352391243
1790690955927462100,1.377462158203125,1.655646269838512,0.5903484038829803,0.7014195456221699
1790690955937500000,1.3875,1.9507816010743377,0.9330115022301674,0.6685615243762731
1790690955947538200,1.3975380859375,2.199412663027644,1.1337199525356292,0.628165801101923
1790690955957576000,1.407575927734375,2.242224215272069,1.386746034577489,0.4800634440854191
1790690955967615200,1.417615234375,2.146327261789143,1.6896049458026885,0.30429040533304214
1790690955977653000,1.427653076171875,2.1242656521067023,1.8907406816095114,0.09735007490068673
1790690955987691000,1.43769091796875,2.0032564691990613,1.825963965794444,-0.0733268097564578
1790690955997729000,1.44772900390625,1.7147101609647273,1.6250000794231891,-0.22623890514224768
1790690956007767000,1.45776708984375,1.4645947056725621,1.5286977600097655,-0.39604689801037307
1790690956017805300,1.467805419921875,1.147568152885139,1.4265537288308143,-0.02191635599285364
1790690956027843600,1.477843505859375,0.763516520833969,1.2426456066787241,0.6365156962960958
1790690956037881300,1.48788134765625,0.45902226349189873,0.9917740723222493,1.0309066437929868
1790690956047919600,1.497919677734375,0.40387890681028366,0.6290419994145632,0.9516282321557402
1790690956057957400,1.507957275390625,0.3254319775611162,0.0975719009578228,0.5892074171543121
1790690956067995400,1.517995361328125,0.09225392080545425,-0.49640930646955966,0.25253712948113677
1790690956078033400,1.528033447265625,0.42969241637215017,-0.9656839377760886,-0.03220920194834471
1790690956088071400,1.538071533203125,0.19767595074176786,-0.9994237102925777,-0.20980156508237122
1790690956098109400,1.548109375,0.16430084681920706,-0.40012218462526794,-0.8782178357690572
1790690956108147500,1.5581474609375,0.4482306742340326,-0.339473946917057,-0.8877674621418118
1790690956118185500,1.568185546875,-0.1387801096588373,-0.5809048682332039,-0.3243497352823615
1790690956128223500,1.578223388671875,-0.7431815888136625,-0.7807143238723278,0.3830974000662565
1790690956138261200,1.58826123046875,-1.0388548993837088,-0.9413771795153617,0.8798580041915178
1790690956148299500,1.598299560546875,-1.1856436165183781,-0.9782160870909691,0.9423150448873638
1790690956158338300,1.60833837890625,-0.9598579350363463,-1.0619295585662125,0.8938897444143891
1790690956168376300,1.618376220703125,-0.8565449331432581,-0.9360819957166909,0.6915823344796895
1790690956178414300,1.628414306640625,-0.9259380567125975,-0.7958750681251286,0.34651918925344943
1790690956188452600,1.63845263671875,-0.8139420552134513,-0.9650479779601097,0.07076309674829244
1790690956198490400,1.648490478515625,-0.7892939361691474,-0.79231065364182,-0.12437193733900785
1790690956208528600,1.658528564453125,-0.7271013916283845,-0.5353706130266189,0.21000410191714763
1790690956218566400,1.66856640625,-0.5720620749555528,-0.6458709691405295,0.501996166691184
1790690956228604400,1.6786044921875,-0.5073492181569338,-0.8294961826980114,0.6005822131276131
1790690956238642400,1.688642333984375,-0.8817379727192223,-1.0704209080576896,0.6570823912456631
1790690956248680400,1.698680419921875,-1.2574568068414926,-0.8950725244581699,2.5660315142408012
1790690956258718500,1.708718505859375,-0.6126597505427896,-0.5808236196905374,0.6883721402615308
1790690956268756500,1.718756591796875,-0.13947174518480895,0.5941320140749216,0.5882561077788472
1790690956278794200,1.728794189453125,-0.17156258145049214,1.34226333425045,0.8014438081681728
1790690956288832500,1.73883251953125,-1.3006436221390962,5.558431414997577,3.1087533668130636
1790690956298870300,1.748870361328125,-1.6757833411991596,4.1413089468568565,2.42257756755203
1790690956308908500,1.758908447265625,-0.47425227358862754,2.159369406452775,2.39102098429352
1790690956318946300,1.7689462890625,-1.2292618089705705,0.8141372855246066,1.8207330794036387
1790690956328984600,1.778984619140625,-0.5575714850492776,-0.008766659301519394,0.8321461126849055
1790690956339022300,1.789022216796875,0.9025900604814291,0.17034896787703036,-0.17588322112858296
1790690956349061400,1.799061279296875,0.5863268932819367,-0.23808336445391176,-0.1587532226294279
1790690956359099400,1.809099365234375,0.5496987058475613,0.019364041161537168,1.6658832939535377
1790690956369137400,1.819137451171875,1.2604589112669229,1.8165695299834013,-1.2647323508024215
1790690956379175400,1.829175537109375,1.1358037730723618,0.8894961856305599,-1.7862965567946434
1790690956389213400,1.83921337890625,0.5995215981587767,-0.8205278633445501,0.019866145464777947
1790690956399251500,1.84925146484375,-0.44811084724664685,-1.149796642589569,0.67115972417593
1790690956409289500,1.85928955078125,-0.35138474946320053,0.08459025430977345,-0.6445654394999146
1790690956419327500,1.869327392578125,0.18368951096534727,-0.5853285298943519,0.6365364468231797
1790690956429365500,1.879365478515625,0.3109977940171957,0.9432698613941669,-0.248650058914721
1790690956439403300,1.8894033203125,1.7026006209760904,1.529905382233858,-1.3655176608487962
1790690956449441500,1.899441650390625,3.0667665749549866,1.1620137346059083,-1.268340312166512
1790690956459479300,1.909479248046875,3.775595812311768,0.8800982426881789,-1.5990435081288217
1790690956469517600,1.919517578125,2.868077355517447,0.7797831805020571,-1.3374489197060464
1790690956479555300,1.929555419921875,1.560680898117274,0.3338455856412649,-0.3552282731488347
1790690956489593600,1.939593505859375,0.006062661039829254,-0.28132804741859435,0.6740493081375956
1790690956499631400,1.94963134765625,-2.740102132989466,-2.184367654109001,3.7509956240624187
1790690956509669400,1.95966943359375,-2.0304601179450747,-0.7110369765341281,2.137121042026579
1790690956519707400,1.969707275390625,0.01684650538265705,0.9448322884052991,0.5559376002371311
1790690956529745400,1.979745361328125,0.49288931564986704,0.13275427349805832,2.9659388870716095
1790690956539784400,1.989784423828125,-3.8812949056237933,-0.6399772349268198,2.55199918949604
1790690956549822200,1.999822265625,1.1199743357777594,-0.2218476844459772,0.7273512747362255
1790690956559860500,2.009860595703125,-0.8163464860066771,-0.18164134626388548,0.3331016354061663
1790690956569898200,2.019898193359375,-3.71550170135498,-0.43579263294339177,-0.5254544914290309
1790690956579936500,2.0299365234375,-1.5647165833741425,-0.4532154769092798,0.028003420821577307
1790690956589974500,2.039974609375,-0.6177139651924372,-0.44180268701314923,0.7330408646799623
1790690956600012300,2.05001220703125,-0.6597837591588497,-0.42672143773734567,0.482599246173352
1790690956610050600,2.060050537109375,-0.076614453125,-0.4249801470279693,0.09785875507518649
1790690956620088300,2.07008837890625,-0.31006402029842134,-0.030187632992863655,-0.012225275322794913
1790690956630126600,2.080126708984375,-0.3669695643469691,-0.1684609621733427,0.12350523750707507
1790690956640164400,2.090164306640625,0.17105945423394442,-0.19163491701185703,0.41007542336285113
1790690956650202600,2.10020263671875,0.3838622469589114,-0.5234954663157463,0.23168679528459904
1790690956660240400,2.110240478515625,0.26180560082495213,-0.5503326198369264,0.03170125242620706
1790690956670278400,2.1202783203125,-0.08481763332486152,-0.6604430998504162,-0.3057540481448173
1790690956680316400,2.13031640625,0.8521502053156494,0.4552501976072788,0.16478198139965533
1790690956690354400,2.1403544921875,2.179936101402342,0.29428514414727686,1.0267582919418812
1790690956700392400,2.150392333984375,1.0117366638988257,-0.5573340230315923,0.06088599198684096
1790690956710430500,2.160430419921875,0.19000147059112787,-0.011597498813271523,-0.7990710876874625
1790690956720468200,2.17046826171875,0.8989075725764035,0.5959574759364128,-1.3563713545799254
1790690956730507300,2.18050732421875,-0.6322995399057865,0.20092413888275623,-0.7004484355676919
1790690956740545500,2.190545654296875,-0.2319552369624376,0.5755985785186291,-0.5239328348197043
1790690956750583300,2.200583251953125,0.9437897936150431,0.9672790980130433,-1.5943400066129862
1790690956760621300,2.210621337890625,2.730073783189058,0.3283727071881294,-3.0537577480390667
1790690956770659300,2.220659423828125,3.671534549334645,1.2384458169013262,-4.5078690536201
1790690956780697300,2.230697265625,-0.6516606584578752,1.6374042184442281,-2.765490841268003
1790690956790735400,2.2407353515625,0.7433733119934797,-0.0027951836764812466,-2.5720178951740262
1790690956800773400,2.2507734375,-0.4121057601466775,1.5792594879895447,-2.7134426741227506
1790690956810811400,2.260811279296875,0.17180705773085356,0.3708978437066078,-0.7460230227846651
1790690956820849400,2.270849365234375,1.7990005555450914,0.22337445562183855,-0.10502660087794065
1790690956830887400,2.280887451171875,-0.510517326799035,0.6568097117841243,-0.4234785102933645
1790690956840925400,2.290925537109375,0.46747313484251496,0.23377251551747322,0.4979862003974616
1790690956850963500,2.30096337890625,-0.2675716170057654,-0.22267361387610435,-0.45030543468147516
1790690956861001500,2.31100146484375,0.3247401959046721,-0.14405191258192063,0.3234783592753112
1790690956871039500,2.32103955078125,1.6967641699075697,-0.39139994898736474,1.5812133985362946
1790690956881077200,2.3310771484375,0.4778156651586294,-0.18510989915728568,0.08351984859928488
1790690956891115500,2.341115478515625,-0.08849661409854888,0.6822165402412415,-1.084393757700175
1790690956901153300,2.3511533203125,1.4783879609644413,-0.1949649382174015,-0.27245325156748296
1790690956911192300,2.3611923828125,0.3085574151277542,-0.10358896929025649,-1.1111511239834129
1790690956921230300,2.371230224609375,0.15132979463040827,0.42745150557756423,-1.0647998533055185
1790690956931268400,2.381268310546875,0.28660189616829157,0.6742950995922088,-1.4037528450883925
1790690956941306400,2.391306396484375,0.45820787836909294,-0.08801496806144714,-0.6599402648948133
1790690956951344400,2.401344482421875,0.4661129524052143,-0.2764835299968719,-0.327443755774945
1790690956961382400,2.41138232421875,-0.058144145932793614,0.06616378625929355,-0.38701369672715663
1790690956971420400,2.42142041015625,-0.05648790315836668,0.10157529138028622,-0.3251490689665079
1790690956981458400,2.43145849609375,-0.38289895488470793,-0.035571664118766784,-0.5307914685428142
1790690956991496400,2.441496337890625,-0.5432271717458963,-0.7512228564500808,0.7366150699049234
1790690957001534500,2.451534423828125,-0.19866262369155882,-1.7077017435073851,1.0744237139582633
1790690957011572500,2.461572509765625,-0.19599486578702927,0.1801549070984125,-0.7032447152227163
1790690957021609700,2.471609619140625,0.3083426033332944,-0.0733943220347166,0.3160787505432963
1790690957031648000,2.48164794921875,0.6805868932127952,-0.5439139849662781,1.1247361433520913
1790690957041685800,2.491685791015625,2.275197679591179,-1.797019026339054,2.5937735076472164
1790690957051724000,2.50172412109375,-0.9956038597434759,-1.233483226057887,0.21955489733368158
1790690957061761800,2.51176171875,-0.9378951826184988,-0.3027063510119915,1.470344647501409
1790690957071800000,2.521800048828125,-0.6929565454423428,-0.5746428852289914,0.7157602056637405
1790690957081837800,2.531837890625,-0.5468079528421164,-0.15397943235635755,-1.0728057573676109
1790690957091876900,2.541876953125,-0.5008484579607844,-0.3959188877165317,0.9876242591664195
1790690957101915000,2.551914794921875,-1.7216405447497962,-0.978891209873557,1.3975801478028296
1790690957111953000,2.561952880859375,-2.012252553342283,-0.6427081211954355,1.0482517463475465
1790690957121991000,2.571990966796875,-1.4245909043252467,-0.5852578027456998,1.5169152600184082
1790690957132029000,2.58202880859375,-1.1466977997913956,-0.5294014754891395,1.3871665980771184
1790690957142067000,2.59206689453125,-1.0744798280596732,-0.4448497996240854,1.188348199301958
1790690957152105000,2.60210498046875,-0.5705597075685859,-0.09328151028752327,0.7164607551485299
1790690957162143000,2.61214306640625,0.4764651273325085,0.35587387757599354,0.3235612152531743
1790690957172181000,2.622180908203125,0.977735025575757,0.40863223881721494,0.4783490413829684
1790690957182218800,2.63221875,1.0708394257307052,0.28677462238669393,0.40415363209843636
1790690957192257000,2.642257080078125,1.0078531004637479,-0.16751754384338854,-0.04714402849078178
1790690957202294800,2.652294677734375,-0.15743863289952278,0.193356333976984,-1.0910016315326094
1790690957212333000,2.6623330078125,-1.6503689139574764,0.01542787075638771,-0.16709566516950725
1790690957222370800,2.672370849609375,-1.4171867655485868,-0.2099403890311718,-0.3094546562284231
1790690957232409000,2.6824091796875,-0.27646277946978803,-0.3375572996407747,-0.4658763671703636
1790690957242446800,2.69244677734375,-0.8582914845496415,-0.23178864822387693,-0.3600406418666243
1790690957252484900,2.70248486328125,0.9826970318973064,0.6550181521922349,-0.868329040569812
1790690957262523000,2.71252294921875,6.087928752076626,1.3577701154619455,-3.2576945127412675
1790690957272561700,2.722561767578125,1.1611240922898054,0.46158349228203294,-2.577042445337772
1790690957282600000,2.732599853515625,-1.1758671956524251,0.9073965839803219,-0.951108299934864
1790690957292638000,2.742637939453125,0.579395632714033,0.007197802549600601,0.00417231724858284
1790690957302676000,2.752676025390625,0.03459054412692785,0.07856441814899444,0.1384742585800588
1790690957312714000,2.7627138671875,0.28306173934340473,-0.04342413118481636,0.8176759810447692
1790690957322752000,2.772751953125,0.21727584648579357,-0.33813948344290257,1.2630562342837452
1790690957332790000,2.7827900390625,0.04682224919050932,0.0551993246525526,1.0954505737654865
1790690957342827800,2.792827880859375,0.2808361722484231,0.13333178112506866,0.8666159530416131
1790690957352866000,2.802865966796875,-0.15058657504767178,0.05103928236365318,0.663180269729346
1790690957362903800,2.81290380859375,-0.5362126168087125,-0.039516602352261544,0.5360843142539262
1790690957372942000,2.822942138671875,-0.4665142266824841,-0.14055530263781546,0.39452494914010167
1790690957382979800,2.832979736328125,-0.21051526630967854,-0.4151981732040643,0.38855186607986686
1790690957393018000,2.84301806640625,0.00018500117808580398,-0.5233429061025381,0.6890091229908167
1790690957403055900,2.853055908203125,-0.08220335917323827,-0.4465560190200805,0.6273603299379349
1790690957413094000,2.863093994140625,-0.39736031869649885,-0.312160992577672,0.32799291409030557
1790690957423132000,2.8731318359375,-0.8881845185101032,-0.14893793105781078,0.051980508736521006
1790690957433170000,2.883169921875,-1.12267774951756,-0.08171732922196388,-0.16378157218545675
1790690957443208000,2.8932080078125,-1.2709966718941925,-0.03598609013855457,-0.3937704775109887
1790690957453246700,2.903246826171875,-1.499869724932313,0.2116518691241741,-0.6530138266324996
1790690957463285000,2.913284912109375,-1.4284300440967082,0.28408231456279753,-0.9624031625397503
1790690957473322800,2.92332275390625,-1.2213593652829526,0.2556488317608833,-1.0631628997534512
1790690957483361000,2.933361083984375,-1.089195166632533,0.16894962247312068,-0.8810694258078933
1790690957493398800,2.943398681640625,-0.37172844931185245,-0.054905310142040246,-0.9118611621737479
1790690957503436800,2.953436767578125,4.258221508100629,0.016881576696038247,-1.1618255185574293
1790690957513474800,2.963474853515625,3.5829642854779955,-0.8270224860608577,-0.560432281307876
1790690957523512800,2.973512939453125,-0.3133884885460138,-0.3671235858649015,0.11311565317884087
1790690957533551000,2.983551025390625,-1.550297305138409,0.5581546917647123,0.3936566418729722
1790690957543588900,2.9935888671875,-1.0104089224264026,0.6893851166963577,0.42503786856457587
1790690957553627100,3.003627197265625,0.23007073839008807,1.0153957709282635,0.556185729779303
1790690957563665000,3.013664794921875,0.26846973488926884,0.9802174900412559,0.5155291636116802
1790690957573703000,3.023702880859375,-0.19369652571678161,0.7211918753236531,0.3036141135066747
1790690957583741000,3.033740966796875,-0.7955693631768226,0.5201216059684753,0.5222599331714213
1790690957593779000,3.043779052734375,-1.2615507981568574,0.28908816002607346,0.7333103292711078
1790690957603817000,3.05381689453125,-0.7631222608193755,-0.024361118796467778,0.47475803115367887
1790690957613855000,3.06385498046875,1.8466759144335985,0.14184592697024345,-0.1067309205777943
1790690957623894000,3.07389404296875,1.3675278316274284,-0.08329612284600735,-0.35629034942239524
1790690957633931800,3.083931884765625,-0.6135007314115762,-0.21405951478779314,-0.6086199736326933
1790690957643970000,3.093969970703125,-0.9306152547433972,-0.18687223265469075,-0.7201565409265458
1790690957654007800,3.1040078125,-1.0415326672255991,-0.3418587962269783,-0.44824850215166806
1790690957664045800,3.1140458984375,-0.4244052697494626,-0.1867903995901346,-0.3887937120117247
1790690957674083800,3.124083740234375,1.0147770545080304,-0.16936112588346003,-0.6891830182529985
1790690957684121900,3.134121826171875,1.4672566183581948,-0.36208500717580316,-0.6426498151369392
1790690957694160000,3.144159912109375,0.5867354740828276,-0.3585743687063455,0.18487156035676597
1790690957704198000,3.154197998046875,-0.13901917911171913,-0.6084300040185451,0.4302545802995562
1790690957714236000,3.16423583984375,-0.26363456981778144,-0.6075584818810225,0.590888940500468
1790690957724274000,3.17427392578125,-0.08122340822517872,-0.5551578480362892,0.7439862562600523
1790690957734312000,3.18431201171875,0.3361240519672632,-0.43649230564534663,0.7650582703832537
1790690957744350000,3.194349853515625,0.6317647023767232,-0.3474824813276529,0.8724250046465546
1790690957754388000,3.204387939453125,0.11173135921359062,-0.488887094271183,0.967223860694468
1790690957764426000,3.214426025390625,0.07229892801344394,-0.31389176189303397,0.8290536265622824
1790690957774464000,3.224464111328125,1.7312012770384548,0.10927110657989979,0.18159005446806548
1790690957784501800,3.234501708984375,1.047342814809084,0.49635553045570846,-0.01020005310550332
1790690957794540000,3.2445400390625,-0.4775345101296901,0.6702420248091221,0.4433982856415212
1790690957804579000,3.2545791015625,-0.19192454760819672,0.7401502582937478,-0.13859803109019994
1790690957814616800,3.264616943359375,0.08632190040796994,0.838456318745017,-0.5738355143688619
1790690957824654800,3.27465478515625,-0.40903994283527134,0.7859311817377805,-0.7468466871924698
1790690957834692900,3.28469287109375,0.04789806172847748,0.6922592108279466,-0.753829458751902
1790690957844731000,3.29473095703125,0.3928887262403965,0.144191028791666,-0.3168103527534753
1790690957854769000,3.304768798828125,-0.12983955509513614,-0.1939443629980087,0.25939327898621556
1790690957864807000,3.314806884765625,-0.0035480478703975677,-0.39444121637940405,0.40164866354018447
1790690957874844700,3.3248447265625,0.3532382683753967,-0.6279027662515639,0.5549829298608004
1790690957884883000,3.334883056640625,0.05518500386625528,-0.5940262156128883,0.7736863979969173
1790690957894920700,3.344920654296875,-0.036411622074246405,-0.5023994867950677,0.9315418680690228
1790690957904959000,3.354958984375,0.08104688261449336,-0.36629999452233314,1.0123388675756753
1790690957914996700,3.364996826171875,0.18518442569822072,-0.18603753539621828,0.8344920912891626
1790690957925035000,3.375034912109375,0.14433482117652893,-0.26822598926126956,0.5191041725542396
1790690957935073000,3.385072998046875,0.1560083078354597,-0.17634323985576628,0.5804072209093719
1790690957945110800,3.39511083984375,0.11601882727444171,-0.2851689407557249,0.49340457169562574
1790690957955149000,3.405149169921875,0.18779869984984396,-0.3205325150817632,0.21116741007547823
1790690957965186800,3.415186767578125,0.637367636950314,0.13202420565783976,-0.04665091121159494
1790690957975225900,3.425225830078125,0.5021522340357303,0.32683132296502587,-0.3221437862033024
1790690957985263900,3.435263916015625,-0.10609539915323257,0.5136807592660189,-0.9336137789722532
1790690957995302000,3.445302001953125,-0.2089157221585512,0.6033674599319696,-1.2463678420722484
1790690958005340000,3.45533984375,0.03474631921052933,0.6160153445810079,-1.3633636976853012
1790690958015378000,3.4653779296875,0.4813081834495067,0.6538666440695524,-1.4601023626893759
1790690958025417000,3.4754169921875,0.4444654764816165,0.3604764029353857,-1.1793572297252715
1790690958035454700,3.485454833984375,0.2117889395073056,0.03771335232257843,-0.5049631267379969
1790690958045492700,3.49549267578125,-0.06252864462733268,-0.17250526912808417,0.0884828595678322
1790690958055530800,3.50553076171875,-0.007595277434587478,-0.18445465011894702,-0.06647694386169314
1790690958065568800,3.51556884765625,0.09468377830088139,-0.09892039295732974,-0.10988279047114774
1790690958075606800,3.525606689453125,-0.09972761768698692,-0.14861410593092442,-0.11528872290160506
1790690958085644800,3.535644775390625,0.2514794371217489,-0.03245966957807541,-0.28442564810775217
1790690958095682600,3.5456826171875,0.6366583196371793,0.17682780850231647,-0.305822893863637
1790690958105720800,3.555720947265625,0.741455495673418,0.29424364309310913,-0.285386620360706
1790690958115758600,3.565758544921875,0.9987240375906229,0.34246085377335544,-0.4287255441013723
1790690958125796900,3.575796875,0.597657850113511,0.35960195818841456,-0.6325025881972164
1790690958135834600,3.585834716796875,-0.35250118627250193,0.6315875922441482,-1.1090853505600242
1790690958145873700,3.595873779296875,-0.17933599193096159,0.3182499571025371,-0.8291535798054188
1790690958155911700,3.60591162109375,0.5056128958836198,0.1864905398607254,-0.6453169885195791
1790690958165949700,3.61594970703125,0.9673808048218488,0.6260165141135454,-1.0037192885946482
1790690958175987700,3.62598779296875,1.544450624936819,0.6742366474032402,-0.6510891421802342
1790690958186025700,3.636025634765625,1.8407219744652508,0.3102513595640659,-0.0802963930407539
1790690958196063700,3.646063720703125,1.0383803406745196,0.4200672405451536,-0.08546367614343763
1790690958206101800,3.656101806640625,0.7934469641953706,0.40783319739401336,-0.07718889201208949
1790690958216139800,3.666139892578125,0.8170502503618597,0.12604688481390475,-0.22343853383399545
1790690958226177800,3.676177734375,0.5449252078354359,-0.47978258131742474,-0.32603030878044664
1790690958236215800,3.6862158203125,-0.3425324577048421,-0.7399778243362903,0.22143764234036206
1790690958246253800,3.69625390625,-1.1203200804755091,-0.9745184016168117,0.8417170010413974
1790690958256291600,3.70629150390625,-1.5914035147696732,-1.0307488228827715,1.398373928529024
1790690958266329900,3.716329833984375,-2.037804050967097,-0.74219783847332,1.1482237672496587
1790690958276367600,3.72636767578125,-1.370646840430796,-0.6263859319478273,0.6331069107659161
1790690958286406000,3.736406005859375,-0.5783978538483381,-0.5021972422212362,0.24564298605322837
1790690958296443600,3.746443603515625,0.03358779682517052,-0.17226503063142298,-0.2086861511863768
1790690958306482000,3.75648193359375,0.4447755653440952,-0.335081849437952,-0.9422709134846925
1790690958316520700,3.766520751953125,1.5110679952949284,-1.365975049227476,-1.9969836725398897
1790690958326558700,3.776558837890625,0.18879589419364928,0.0426642527282238,-1.033368357731402
1790690958336596700,3.7865966796875,-0.3742982997998595,0.5703817206531763,-0.2191216204829514
1790690958346634800,3.796634765625,0.6479442682832479,-0.062167410099506375,-0.8858823790475726
1790690958356672800,3.8066728515625,-0.5321335308015346,0.29239713844358917,-1.2472044390268624
1790690958366710800,3.816710693359375,-0.8654533390030265,0.1138672021985054,-0.5436150020197034
1790690958376748800,3.826748779296875,-1.1090250717401504,0.32658582377135753,0.7718379205860197
1790690958386786800,3.836786865234375,-1.6725030043542384,0.4304553635686636,1.4153845384322106
1790690958396824800,3.846824951171875,-0.13413929811567069,1.0791337913453578,0.997199166110903
1790690958406862800,3.85686279296875,-0.4852040218442678,0.5402244827985764,0.14179521969631315
1790690958416900600,3.866900634765625,-1.023134548486769,-0.01559738210439682,0.018854776465147733
1790690958426939000,3.87693896484375,1.2322314724311232,-2.601047005781531,3.0918191831469533
1790690958436976600,3.8869765625,2.575714703865349,-4.193504413518309,7.838270198392868
1790690958447015000,3.897014892578125,-2.512347854848206,3.7259506146550176,-1.571549059742689
1790690958457052700,3.907052734375,-1.2894058965489268,2.2566806106477975,-4.28833899846673
1790690958467091000,3.917091064453125,1.5758783211186527,1.261201254066825,-2.5412621069043873
1790690958477128700,3.927128662109375,1.8021803546249866,-1.0205904169619082,-0.09976049704328178
1790690958487167700,3.937167724609375,0.16502572702765464,-0.8253238654494285,0.7643693382710218
1790690958497205800,3.947205810546875,-1.0736401623651384,-0.24673896459639072,0.3077005060374737
1790690958507243500,3.957243408203125,-1.6483017522946,-0.0317062208622694,-0.22016090040281414
1790690958517281800,3.96728173828125,0.7723185437098145,0.14075988529920577,-0.3519400452584028
1790690958527319600,3.977319580078125,0.784331929847598,0.6300894626408815,-0.63615811503008
1790690958537357800,3.98735791015625,0.6388400475904346,0.971826678314805,-0.5962701951473951
1790690958547395600,3.9973955078125,0.4251826838627457,0.521901475122571,-0.6522041176848113
1790690958557433900,4.007433837890625,-0.20488895086050032,0.2760802098929882,-0.6928102688394486
1790690958567471600,4.0174716796875,-0.3805038764417171,-0.27149463566839693,0.06093611473888159
1790690958577509600,4.027509521484375,0.34742052200734613,0.3075239804267883,0.13364917651116848
1790690958587548000,4.0375478515625,0.8411866204917431,0.5084551335722207,0.10108049360066652
1790690958597585700,4.047585693359375,1.348142163155973,0.34725276422500606,-0.3936598567433655
1790690958607624000,4.0576240234375,1.2929036755368113,0.27588088792860505,-0.5476109397880733
1790690958617661700,4.06766162109375,0.5634320476457476,0.5116887086659669,-0.4939728731028735
1790690958627700000,4.077699951171875,-0.15575550211817024,0.47012511065602297,-0.22138751958832142
1790690958637737700,4.08773779296875,-0.299111541390419,0.8634352771788835,0.24868498409762976
1790690958647776800,4.09777685546875,-0.06347381652295589,0.9159259273946285,0.6190633339747786
1790690958657814800,4.107814697265625,0.03887625862210989,0.8036445330828428,0.7215915421657264
1790690958667852500,4.1178525390625,0.3264771026998758,0.38705169064998624,1.2277537424951792
1790690958677890800,4.127890869140625,-0.5684685805082321,0.5602788443118334,1.684663690008223
1790690958687928600,4.137928466796875,-0.6408619088068604,0.30188509775698186,0.956139133708924
1790690958697966800,4.147966796875,-1.388336518639326,-0.7911994775295257,-0.026382249360531566
1790690958708004600,4.158004638671875,0.03639145606905222,-0.08832768727242946,-0.374092255833745
1790690958718043000,4.16804296875,-1.8807666923448443,-0.26048750396370884,-0.34251302235201
1790690958728080600,4.17808056640625,-1.4417328855231404,-0.3241723328888416,-0.022039397850632667
1790690958738118700,4.18811865234375,-0.41922114510983227,-0.5664058027595281,-0.10322305858731269
1790690958748156700,4.19815673828125,-0.031492870372533795,-0.572918545654416,-0.4618994263634085
1790690958758194700,4.208194580078125,0.335609672704339,-0.6031622927486896,-0.32943785220161076
1790690958768232700,4.218232666015625,0.38916765989065166,-0.6644394760102034,-0.3579349017590284
1790690958778270700,4.228270751953125,0.5130249257057905,-0.565538956797123,-0.4290246001131832
1790690958788308700,4.238308837890625,0.5782300960659981,-0.5292033225685358,-0.32101912955492734
1790690958798346800,4.2483466796875,0.40188685621023174,-0.5853361286789178,-0.3561420269928872
1790690958808384800,4.258384765625,0.5831289740234613,-0.3980670056611299,-0.28350056915208693
1790690958818423800,4.268423828125,0.6228405144259334,-0.2945101850748062,-0.35759938619434833
1790690958828461600,4.278461669921875,0.33981559996157884,-0.19931436559855936,-0.4393767750404775
1790690958838499800,4.288499755859375,0.5142202729701996,-0.4625935461074114,0.23811638994067905
1790690958848537600,4.29853759765625,0.41708530212491746,-0.7377157246232032,0.19256226098984477
1790690958858576000,4.308575927734375,-0.013180676351487636,-0.3894242650002241,-0.24737507054284213
1790690958868613600,4.318613525390625,-0.17001520587801933,-0.30884499989748,0.007756020954251289
1790690958878651600,4.328651611328125,-0.050740591678023333,-0.5182762703627347,-0.30997415005788204
1790690958888689700,4.338689697265625,0.03757394385188818,-0.4644944112926721,-0.531139697458595
1790690958898727700,4.348727783203125,-0.0981774656355381,-0.6968506302714348,-0.6525669596478343
1790690958908765700,4.358765625,0.09803805716484784,-0.9548176758468151,-0.9208126765228808
1790690958918803700,4.3688037109375,0.18124533268362283,-1.0479483794867992,-0.27843817119598385
1790690958928841700,4.378841796875,0.7837374710857867,-1.0306441934645176,0.4668120405852794
1790690958938879700,4.388879638671875,0.4764771100312471,-0.9340653951972723,-0.051231590065360065
1790690958948917500,4.39891748046875,-0.10852408760488033,-0.7949024237006902,0.7955765235699713
1790690958958955800,4.408955810546875,0.8751245459288358,-1.6194272477269172,0.4745714225403964
1790690958968993500,4.41899365234375,-0.9236831173926592,-1.083667343121767,-0.8057406285792589
1790690958979032800,4.42903271484375,-0.7422446002244949,-1.1659732858866452,-0.1011101580865681
1790690958989070600,4.439070556640625,-0.1934703157454729,-0.5641390268713236,-0.20979425855875014
1790690958999108900,4.44910888671875,-0.845476134379208,0.21957097168564796,0.03771978206336498
1790690959009146600,4.459146728515625,-1.3231789868131278,0.5423392829954624,-1.0117429475091397
1790690959019184000,4.46918408203125,0.6243231541991233,-0.23590251328349113,0.9144215141810477
1790690959029222000,4.479221923828125,-0.19217384619414804,-0.4339040427178144,1.0432682588465512
1790690959039260200,4.48926025390625,-0.5514908499613403,0.08232873911857605,-0.45292350822538135
1790690959049298200,4.499298095703125,-0.8129971755787729,-0.2899322096347809,0.6005480185970664
1790690959059336200,4.509336181640625,-2.0428551968768236,0.11430559361577033,1.0632302659012376
1790690959069374200,4.519374267578125,0.5537134944468737,-0.7527437824070453,-0.054420449234545226
1790690959079412200,4.529412109375,-1.636675319647789,-1.5372703580439089,-0.18490093258172272
1790690959089450200,4.5394501953125,-2.171160089750588,-1.0083774165987969,0.7048696860760449
1790690959099488000,4.549488037109375,-2.7311566099897027,-0.020713702204823492,0.5914211476810276
1790690959109526300,4.5595263671875,-0.40224809073805806,0.2584247262150049,0.03050678194463253
1790690959119564000,4.56956396484375,-0.7508169059976935,0.3824251998931169,0.0809539436340332
1790690959129602300,4.579602294921875,-0.35032822614759207,1.3080413311749697,0.21281952466405926
1790690959139641000,4.58964111328125,1.1052588510744272,1.1687743147820233,-0.15011398909986018
1790690959149679000,4.59967919921875,11.844199783945083,2.370572947287559,-1.2630712857224047
1790690959159717000,4.609717041015625,3.0275659066841003,-0.90754914419353,0.24317659593969582
1790690959169755100,4.619755126953125,-10.442070886796712,-1.422162215873599,-0.37754195789620276
1790690959179793200,4.629793212890625,4.259831281384826,2.813109793794155,-1.1361439648121594
1790690959189831000,4.639830810546875,2.967563857924938,0.6353706179141998,0.12353124873116612
1790690959199869200,4.649869140625,-2.225609180557728,-1.0461948138177395,1.4237781266376375
1790690959209907000,4.659906982421875,-1.8575807548075913,2.9447838708400726,3.6108901110187173
1790690959219945200,4.6699453125,0.5758677508488297,4.039833608719706,1.6813829147718846
1790690959229983000,4.67998291015625,-0.758714381249249,-1.2924649918586015,-1.9244629184693096
1790690959240021200,4.690021240234375,1.8557076544120907,-0.7376105106830596,-0.25514190515205265
1790690959250059000,4.70005908203125,1.8736591984272002,-0.5855062245488166,0.548831129232794
1790690959260097000,4.710096923828125,1.0945800745412706,-0.4127729918837547,0.00593625818118453
1790690959270135000,4.720135009765625,-1.8904019511744379,0.3599251987934112,-0.5793488709628581
1790690959280173000,4.730173095703125,-5.94300823996663,1.6647364620059728,-1.708753882908821
1790690959290211300,4.74021142578125,1.9233064419105648,1.7780793480694292,-2.0214786468490957
1790690959300250000,4.75025,1.424646141643822,0.638828064891696,-0.9631867141328752
1790690959310288100,4.7602880859375,0.36979572768360375,-0.2825941218316555,-0.2617905493862927
1790690959320326100,4.770326171875,0.08029811007380486,-0.32777298772931096,-0.15256035933867096
1790690959330364200,4.7803642578125,0.04079612076878547,-0.5763906056791543,0.08038856483623386
1790690959340402200,4.790402099609375,1.2691957599520682,0.35312019495368,-0.09220014479160309
1790690959350440000,4.80043994140625,-0.5645926158577204,3.6063925073385237,0.19039017764776944
1790690959360478200,4.810478271484375,-1.516764453370869,0.3549596853405237,-0.6502031531259417
1790690959370516000,4.820515869140625,-1.4753189287826418,-0.4718237312674522,0.22825857440158723
1790690959380554200,4.83055419921875,-1.723528258192539,-1.2389175260663032,2.237094597298652
1790690959390592000,4.840592041015625,-0.13121084344834089,0.20399872402250765,1.7970771862670778
1790690959400630000,4.850630126953125,-2.8992773804232477,-0.9731021050781011,1.4641031227633357
1790690959410668000,4.86066796875,-0.8634551509231329,1.2139333069354294,-0.3703288116469979
1790690959420706000,4.8707060546875,0.33070933344215153,1.4891688826978207,-2.188512644959241
1790690959430744000,4.880744140625,-1.6844953477039932,0.3452262268334627,-1.2688947311788796
1790690959440782000,4.890781982421875,5.557563399991393,1.4448831662476063,-2.6876652587875722
1790690959450820000,4.900820068359375,8.29927735209167,-0.026540800923109054,-0.5580681825250386
1790690959460859100,4.910859130859375,-1.1286860500216482,0.5060580093026161,-0.5416537849493325
1790690959470897200,4.920897216796875,-3.3909827469855545,0.2290986784875393,-0.41865459726825355
1790690959480935200,4.93093505859375,0.15930296546667813,-0.535079521125555,1.1296300528734922
1790690959490973000,4.940972900390625,1.2724138452157376,0.0032242227435111998,1.213631547509879
1790690959501011200,4.95101123046875,0.3625079087629914,-0.1636807421594858,-0.06981047219857574
1790690959511049000,4.961049072265625,-0.5624906751424074,-0.03958616045713424,-0.012210954536497592
1790690959521087200,4.971087158203125,-0.029315526333451268,-0.043109658408164976,-0.04534560076668858
1790690959531125000,4.981125,0.7421826409041881,0.18301380366086958,-0.6974443583808839
1790690959541163300,4.991163330078125,0.21026362963616846,0.1678945604622364,-0.6747749920636416
1790690959551201000,5.001200927734375,-0.1336021224990487,-0.16020049882829188,-0.3349554465793073
1790690959561239000,5.011239013671875,0.20295242983996867,0.016140987461805343,0.0011789806514978407
1790690959571277000,5.021277099609375,0.22618892852067946,-0.012014847442507743,-0.1812033932380378
1790690959581315000,5.031315185546875,0.1634741136714816,0.22249767278730867,-0.06979629754275084
1790690959591353000,5.04135302734375,-4.804654490150511,-0.697974665865302,0.9152380912609398
1790690959601391000,5.05139111328125,-1.6487144247487187,-1.2719085260421037,1.8119727037124336
1790690959611429000,5.06142919921875,2.6843472202807663,-1.0111936430633068,1.2590434915110469
1790690959621467100,5.071467041015625,3.0462492721050975,-0.5067985985368489,1.8586412236459553
1790690959631506200,5.081506103515625,-0.16767536475360392,-0.12746201230883597,1.7697361748769878
1790690959641544200,5.091544189453125,-4.814029929000139,0.5677279912739992,-0.6811614782303571
1790690959651582000,5.10158203125,-3.8654610844150183,-0.4707295062899589,-1.1621177795022726
1790690959661620200,5.1116201171875,-3.3556051441341634,-0.7060100882828235,-0.8176470472112297
1790690959671658000,5.121657958984375,-2.9354356122583147,0.6589408785939216,-0.2596438927464187
1790690959681696300,5.1316962890625,0.929765067654848,0.41199499324858185,-0.8507238257743418
1790690959691734000,5.141734130859375,11.935037992733717,-0.18537410305142402,-2.7512799450859426
1790690959701772300,5.151772216796875,6.083610304355621,0.7928104198575019,0.20382102936804294
1790690959711810000,5.16181005859375,-1.4398992403551936,0.30255846697390076,0.8700579101890326
1790690959721848000,5.17184814453125,-3.6295483419984578,-0.5116407778710127,0.9544318913996219
1790690959731886000,5.181885986328125,-2.050100345699489,0.1977268041461706,-0.14760259080082178
1790690959741924000,5.191924072265625,1.3700509203642606,1.7001760241776704,-0.7749721269585191
1790690959751962000,5.201962158203125,1.5010963441178202,1.327139999398589,-0.5659557209044694
1790690959762000100,5.212000244140625,-0.17932547053694725,1.002699955484271,-0.19926774997785687
1790690959772038100,5.2220380859375,-0.46011254294663667,0.9006050241440534,-0.3570832533657551
1790690959782077200,5.2320771484375,0.4504220467984676,0.8077525529235601,-0.5411234774649143
1790690959792115200,5.242115234375,0.18368308122456073,0.9528314704656601,-1.0320505531311035
1790690959802153200,5.2521533203125,-0.5225982252150774,0.8399731530487536,-1.3718378037810324
1790690959812191000,5.26219091796875,-1.0709139522716402,0.6524702212750911,-1.4885951744630932
1790690959822229200,5.272229248046875,0.7149144024893641,0.38687633408308025,-1.2198090671010315
1790690959832267000,5.28226708984375,0.8023699831023812,-0.059659811192750926,-0.7808760903052985
1790690959842305300,5.29230517578125,1.207242577125132,-0.23989304422438143,0.9119970635131001
1790690959852343000,5.302343017578125,0.5762482745990157,-1.1837813297778368,0.9278026815406978
1790690959862381300,5.31238134765625,-0.7815089813813567,-0.8379641513139009,-0.026423896545171736
1790690959872419000,5.322419189453125,-1.6945236975044011,-0.8584966517329216,-0.6370704075694084
1790690959882457000,5.33245703125,-1.4091077962502836,-0.9026040890067816,-0.7595192678913474
1790690959892495000,5.3424951171875,0.27405864093750715,-1.00848321506083,0.1033864324554801
1790690959902533000,5.352533203125,2.1603309449613093,-1.3550152637958526,1.0915760704196988
1790690959912571100,5.362571044921875,0.9226865075707436,-0.9140402597784996,1.3867612321466207
1790690959922609200,5.372609130859375,-1.466012171255052,-0.5548807846605778,0.7988217891015112
1790690959932647200,5.382647216796875,-1.5271537454381585,-0.5331131894886494,0.49182826228961346
1790690959942686200,5.392686279296875,-1.4206427512213586,-0.01585924791097641,0.13355974466204643
1790690959952724200,5.40272412109375,-0.46706133917123077,0.057895724129676814,-0.6107724754914641
1790690959962762200,5.41276220703125,0.6249331027910113,0.20038754778802392,-1.0469399330966174
1790690959972800000,5.422800048828125,0.13923106829673051,0.23031565306186674,-0.8967398731485009
1790690959982838300,5.43283837890625,-0.6989610465541481,0.4203671002745628,-0.5933714049659669
1790690959992876000,5.4428759765625,-0.167001995536685,0.673067603623867,-0.543034717913717
1790690960002914300,5.452914306640625,0.9094725134715438,0.46456396939754485,-0.43713644876778124
1790690960012952000,5.4629521484375,0.05951455750316381,0.47284489100873467,0.36211817879304287
1790690960022989600,5.472989501953125,-0.35161300526112316,0.26627017901837824,0.37908860281631346
1790690960033027300,5.48302734375,-0.23634295052736995,0.3330219942986965,0.28820728553831576
1790690960043065600,5.493065673828125,-0.2862804091289639,0.17574293587505815,0.23307167377173899
1790690960053103400,5.503103271484375,-0.4506482567697763,0.2542588387072086,-0.006381079339236021
1790690960063141600,5.5131416015625,0.6582622486799955,0.1905553050816059,-0.1670446656346321
1790690960073179400,5.523179443359375,1.053361052185297,0.3112631669551134,-0.220203132109344
1790690960083217700,5.5332177734375,0.6092158936992287,0.09212474146783352,0.2688504047699272
1790690960093256400,5.54325634765625,-0.7694587703645229,0.180873869022727,0.7147714868873357
1790690960103294700,5.553294677734375,-0.20520283911526202,-0.15854980901181698,0.6458836824916303
1790690960113332500,5.56333251953125,0.308091551181674,-0.7259446228086948,0.6257023335978389
1790690960123370500,5.57337060546875,0.03723258306831121,-0.7311258248388767,0.5184510424077511
1790690960133408500,5.583408447265625,-0.26971272068768737,-0.32882278904318807,0.3730339789524674
1790690960143446500,5.593446533203125,0.4441276228293776,-0.13560674031972883,-0.391211148416996
1790690960153484500,5.603484619140625,0.3988087639391422,0.17912556405067442,-0.404281057870388
1790690960163522600,5.6135224609375,0.139504332280159,0.17594810305833816,-0.4598194052189588
1790690960173560600,5.623560546875,-0.4218529549181461,0.030515549772977827,-0.24433380315080283
1790690960183598600,5.6335986328125,-0.04044599215686321,-0.12066402273178099,-0.09300488530322909
1790690960193636400,5.64363623046875,0.40535482458174227,-0.16132278085649013,-0.1937180068962276
1790690960203674600,5.653674560546875,0.5083835296407342,-0.18689269092082977,-0.37236791625916954
1790690960213712400,5.66371240234375,1.2548793575689197,-0.45713761878907677,0.598569996522367
1790690960223750700,5.673750732421875,0.604371960799396,-0.27521920914947984,-0.1539478681743145
1790690960233788400,5.683788330078125,-1.7911431200429797,-0.07478080795705318,-0.0008276829957962036
1790690960243826700,5.69382666015625,-0.15356617538034914,0.022970541220903397,0.08199863038137555
1790690960253865500,5.703865478515625,0.8652581086918711,0.3018681466221809,-0.15610650751292704
1790690960263903700,5.71390380859375,1.1470169487431645,0.5995008476316929,-0.4899691904194653
1790690960273941500,5.72394140625,0.52550271448493,0.6259516321837901,-0.7404960029914974
1790690960283979500,5.7339794921875,-0.31285072840750217,0.2338596092790365,-0.20169336968958376
1790690960294017500,5.744017578125,-1.6894763509869575,-0.5088999547302723,1.929295307061821
1790690960304055600,5.7540556640625,-1.3883601917758583,-0.14126549673378466,0.9400903545752167
1790690960314093600,5.764093505859375,0.8545970139458775,-0.22854688982367513,0.8172562943279743
1790690960324131600,5.774131591796875,0.3559036881923675,-0.42190556188821793,1.6887759476326405
1790690960334169600,5.784169677734375,-0.2496200729906559,-0.39824002414047716,1.1549433578282593
1790690960344207600,5.79420751953125,1.0791101182088256,0.1701648434817791,-0.25541283104792234
1790690960354245400,5.804245361328125,1.5312813467621802,0.27155367237925526,-0.015467325983941554
1790690960364283600,5.81428369140625,0.02914338463693857,0.6304816768288612,-0.07229045244604348
1790690960374321400,5.8243212890625,0.21078706898838281,0.9572615618675947,-0.7460910465195775
1790690960384359700,5.834359619140625,0.48152357976585625,0.9919055897474288,0.5293794097878038
1790690960394397400,5.8443974609375,-0.06650923869609833,1.2425883235335349,0.7272711952373385
1790690960404435700,5.854435791015625,0.29630612858086824,1.0463058729767798,0.10206658202856779
1790690960414474500,5.864474609375,0.2474295772090554,0.5336176318794489,0.24477687074318527
1790690960424512500,5.874512451171875,-0.21275983036607501,0.1491279006719589,-0.28370982798859473
1790690960434550500,5.884550537109375,0.2148705389097333,0.2921037084549665,-0.3119634241789579
1790690960444588500,5.894588623046875,0.27486411210149525,-0.17975334056019782,-0.7683988860480487
1790690960454626600,5.90462646484375,0.7376970199227333,0.14378829320967196,-0.19154606968462465
1790690960464664600,5.91466455078125,-0.4075350912302732,-0.7533458399534225,-0.31440351080745454
1790690960474702600,5.92470263671875,-2.4440020483747125,-0.056253217619657514,-0.1401187378514558
1790690960484740600,5.93474072265625,0.6065776541501283,-0.17759879287481306,-1.1175251890599727
1790690960494778600,5.944778564453125,1.5937261124983428,-2.3101339684158564,0.5469729341454803
1790690960504816600,5.954816650390625,-1.4796075658872723,-1.130477025091648,-1.7245269138410686
1790690960514854400,5.9648544921875,2.0043170841678974,0.378739789378643,0.39549233286753294
1790690960524892700,5.974892578125,-1.6719637829110026,1.107877070748806,-0.5948039219871163
1790690960534930400,5.984930419921875,-0.2530693366616964,-1.0628209544479845,-0.7760895136158913
1790690960544968700,5.99496875,-0.31351503753513094,-0.48308571451604365,-2.7412089251875877
1790690960555006500,6.00500634765625,0.025589199286699293,-1.5949913101285695,0.08660311023583635
1790690960565044700,6.015044677734375,1.2572867109715937,0.8577607386738061,1.4147995781511067
1790690960575083500,6.02508349609375,-2.336900687049329,-1.281207100263238,3.7006408168315885
1790690960585121500,6.03512158203125,1.3887269792616366,-0.3689940559118986,1.8898449018135666
1790690960595159600,6.04515966796875,1.140296408316493,-0.8108511034607887,2.3928987608641386
1790690960605197300,6.055197265625,-0.8311401505127549,-0.3806406545639038,0.17029500920008867
1790690960615235600,6.065235595703125,0.007213292379677295,-0.36779461699426175,-0.5362684751817957
1790690960625273300,6.0752734375,0.40842297998070715,-0.9052385291635989,-0.6456848719839007
1790690960635311600,6.0853115234375,-0.17015402982681987,-0.909130860427022,-0.3536207283543423
1790690960645349400,6.095349365234375,0.2919453030228615,-0.43376258842051024,0.10056015952099114
1790690960655387600,6.1053876953125,0.4772890109360218,-0.22506489292681217,-0.07614513684650882
1790690960665425700,6.11542578125,-0.04124766392856836,-0.5415495939224958,0.34373934927657246
1790690960675463400,6.12546337890625,-0.11482348001003265,-0.6216413677692413,0.8199322355389594
1790690960685501700,6.135501708984375,0.8795344713255763,0.1426268482148647,0.5442058805849402
1790690960695539500,6.14553955078125,-0.5298474656909704,0.21910919939279555,-1.1270119062643498
1790690960705577700,6.15557763671875,-0.45394496022760866,0.749553461933136,-1.5657393505506216
1790690960715615500,6.165615478515625,-0.5611731628030538,-1.1350777968853711,-1.2751396169178186
1790690960725653500,6.175653564453125,0.790480807866156,-1.2626333326965569,-0.23909743686728177
1790690960735692500,6.185692626953125,1.1078928528398275,-1.5363438908487557,-0.29671536696888506
1790690960745730600,6.19573046875,0.3425564231023192,-0.8279279104679822,-0.8495083125047386
1790690960755768600,6.2057685546875,0.7300862526580691,6.31584318921566,-0.7904102268479763
1790690960765806300,6.215806396484375,-0.7024287226647138,2.4726462513178586,-0.552190084271878
1790690960775844600,6.2258447265625,-1.04133539108783,-0.7473176657050847,-0.43740269848853347
1790690960785882400,6.23588232421875,-1.2398755574434994,0.6641530602842569,0.24193996681682764
1790690960795920600,6.245920654296875,0.950080710452795,0.7851268796175718,0.3702215518802404
1790690960805958400,6.25595849609375,1.388810565891862,0.5515051707476377,0.10866619948931037
1790690960815996400,6.265996337890625,-1.1132330448240042,0.41031098568439484,-0.21944413043558597
1790690960826034400,6.276034423828125,0.9157169608190655,0.5581769035965204,1.3355359256915746
1790690960836072400,6.286072509765625,0.5712205095648766,0.3044610857248306,-0.0566034923620522
1790690960846110500,6.2961103515625,-1.3633353483736514,0.06983984442353249,-0.4300684831429273
1790690960856148500,6.3061484375,-0.524741666984558,0.10659574989080428,-1.224876798819378
1790690960866186500,6.3161865234375,0.9858224704414605,-0.05637304460704326,0.4423530874375254
1790690960876224500,6.326224609375,1.4078747473239899,-0.08270750930309295,0.9087303168021142
1790690960886263600,6.336263671875,0.5483592739373445,0.21448446220159528,0.8442545566949993
1790690960896301600,6.346301513671875,-0.8690244754880666,-0.053851417174935336,0.8639217455215752
1790690960906339600,6.356339599609375,-0.492775626142323,-0.16995616916716097,0.3413006508875638
1790690960916377600,6.366377685546875,-0.10143383708298205,0.19424246916174887,0.25292729784250256
1790690960926415400,6.376415283203125,0.2670265503436327,-0.022698154020309447,0.16339951406531034
1790690960936453600,6.38645361328125,0.4601563820883631,0.12144143684506416,-0.15494798512756824
1790690960946491400,6.396491455078125,0.10743687689006327,0.15169161368012427,-0.08785451680272817
1790690960956529700,6.40652978515625,-0.888057969520986,0.16774492285847664,-0.30555348407141864
1790690960966567400,6.4165673828125,-0.4828539515867829,0.2202133612424135,-0.11417809477858244
1790690960976605400,6.42660546875,0.5699491744548082,-0.06721417209506035,0.38431547061912713
1790690960986643500,6.4366435546875,0.43936669203788037,0.2890110031366348,0.3230414291627705
1790690960996681500,6.446681396484375,-0.5424602790266275,-0.09318564869761467,0.48090179460570215
1790690961006719500,6.456719482421875,0.06741524762511253,-0.32865444673895833,0.21027904640100895
1790690961016757500,6.466757568359375,-0.08520780168622731,-0.220609667083621,0.4195225392092019
1790690961026796000,6.476796142578125,-0.10507307036817073,-0.2531575994670391,0.24677133249603211
1790690961036834300,6.486834228515625,-0.5869537930086255,-0.27501871814131734,-0.13839154873266815
1790690961046873000,6.496873046875,-0.31467619026899335,-0.11823065810501575,0.040774128132686015
1790690961056911000,6.5069111328125,0.260481658744812,0.05330372016429901,0.3193189745735377
1790690961066949000,6.51694921875,-0.322853066983819,0.16583645888864992,0.14989479339122772
1790690961076987400,6.5269873046875,0.3613911796927452,-0.18429332207739352,0.2607104259993881
1790690961087025200,6.537025146484375,0.6870119578242302,-0.28246903414726254,0.14129779156818986
1790690961097063200,6.547063232421875,0.11361527326405048,-0.06967091759741306,-0.13205701194889843
1790690961107101200,6.55710107421875,-0.4561699428007006,0.1030354270607233,-0.19941892195157707
1790690961117139200,6.56713916015625,-0.08797054439783096,0.10879764384925365,-0.18264979265406728
1790690961127177200,6.57717724609375,0.4446779501885175,0.07687982606291771,-0.11241006219275296
1790690961137215200,6.58721533203125,0.707775344389677,-0.18663082511425017,0.08072992561981082
1790690961147253000,6.5972529296875,0.07628215243071317,-0.3384861049234867,-0.019101663898304103
1790690961157291300,6.607291259765625,-0.5484297088250517,-0.41070962961316104,-0.20093940951712427
1790690961167329000,6.6173291015625,-0.45451048515588044,-0.4113566953450441,-0.3067201166979968
1790690961177367300,6.6273671875,0.3162400785848498,-0.43406829336881636,-0.2581363377276808
1790690961187405000,6.637405029296875,0.8409557343453168,-0.35303660832345485,-0.35409766168370843
1790690961197443300,6.647443359375,0.5537544109791517,-0.30326690750420093,-0.24192849557474255
1790690961207482000,6.657482177734375,-0.18396598981916903,-0.1666390074431896,-0.33859256097264584
1790690961217520000,6.66752001953125,-0.6276201499179005,0.11818506539762019,-0.502762767149508
1790690961227558100,6.67755810546875,-0.04926116677522659,0.4077303215414285,-0.6659029726915061
1790690961237596200,6.68759619140625,0.7398480604767799,0.6141156484395265,-0.9621388855803757
1790690961247634200,6.69763427734375,0.0630330870181322,0.6085305417835712,-0.9279819105651229
1790690961257672200,6.707672119140625,-0.48220016385316844,0.5540916801095008,-0.7380159496787935
1790690961267710200,6.717710205078125,-0.37631636162400245,0.4898977326184511,-0.5051705589435994
1790690961277748200,6.727748291015625,0.06086217271983623,0.4309411012589931,-0.19374153390228746
1790690961287786200,6.7377861328125,0.35246640722006556,0.3477706506192684,0.11244659481085836
1790690961297824300,6.74782421875,0.22067484127432108,0.24201778129339216,0.2744681715864688
1790690961307862000,6.757862060546875,-0.1234831718057394,0.1402396608173847,0.20803667430169878
1790690961317900300,6.767900390625,-0.41619273719936606,0.057384267476201054,0.19909465843327342
1790690961327938000,6.77793798828125,-0.15039952804297207,-0.09959960739314555,0.2408960837870836
1790690961337976300,6.787976318359375,0.07816518969833851,-0.27614742991030217,0.19366956464461982
1790690961348014000,6.79801416015625,-0.2009787916794419,-0.31471769132316113,0.32238881047293544
1790690961358052400,6.80805224609375,-0.44093993270397186,-0.2816968807309866,0.4022893725965172
1790690961368091100,6.818091064453125,-0.2712169877707958,-0.3278402077466249,0.4534294119209051
1790690961378129200,6.828129150390625,0.17921879529207943,-0.3487479712188244,0.6248136411298066
1790690961388167200,6.838167236328125,0.14580664729475973,-0.20584932032525538,0.6036865358185023
1790690961398205000,6.848204833984375,0.06699789899587631,-0.06025953065156936,0.3858014713931828
1790690961408243200,6.8582431640625,0.22566870403885841,0.036712650847435,0.1357219641972333
1790690961418281000,6.868281005859375,0.13033961357176302,0.1618687243014574,-0.06545476120710372
1790690961428319200,6.8783193359375,-0.11281710862368345,0.22916823659241198,-0.2099128434371203
1790690961438357000,6.88835693359375,-0.4546574924111366,0.24921207671165466,-0.1876389061782509
1790690961448395300,6.898395263671875,-0.10175181699097156,0.3710533265292644,-0.2721369521599263
1790690961458433000,6.90843310546875,0.32594811038970944,0.363351666110754,-0.36668029907681043
1790690961468471000,6.918470947265625,0.398294384676218,0.2042056447714567,-0.2894202415246516
1790690961478509300,6.92850927734375,0.28237551064491273,0.07600596583783627,-0.23846980648823082
1790690961488547000,6.938547119140625,0.16685878767371176,-0.11496785691678524,-0.1724210979759693
1790690961498585300,6.94858544921875,0.021569442251324653,-0.35765959194898606,-0.0443715681027621
1790690961508623000,6.958623046875,-0.1062900449424982,-0.3492126661211252,-0.03135207366235554
1790690961518661400,6.968661376953125,0.038781858336925504,-0.29339199469983573,-0.15772921334393322
1790690961528700200,6.9787001953125,0.25514322032630443,-0.20831191104650496,-0.24656572692133485
1790690961538738200,6.98873828125,0.03253331933617592,0.025706688186526296,-0.3542408695466816
1790690961548776200,6.998776123046875,-0.2551426358044147,0.15255962868630885,-0.3034576808359474
1790690961558814000,7.00881396484375,-0.19929858350753782,0.24246727862656114,-0.498613611580804
1790690961568852200,7.018852294921875,-0.09117986183315514,0.24425708465278148,-0.3700620504695922
1790690961578890000,7.028889892578125,0.13516338046640156,0.0009328969359397888,0.032270795942470426
1790690961588928300,7.03892822265625,0.06070201372206211,0.3520966971248388,-0.11524594320580363
1790690961598966000,7.048966064453125,0.11699790143966673,0.18755846135318277,0.43207748487778
1790690961609004300,7.05900439453125,0.47147009552419183,0.06007657530009746,0.6230884978376329
1790690961619042000,7.0690419921875,0.364994757142663,0.24067981068789956,0.16161336130090057
1790690961629080000,7.079080078125,-0.2373416061758995,0.3208616009056568,-0.0401414562523365
1790690961639118000,7.0891181640625,-0.37590982664972544,0.20591361773312092,-0.3343560924466699
1790690961649156000,7.099156005859375,-0.30861177566349507,0.046618543311953545,-0.24607947777435182
1790690961659194000,7.109194091796875,0.017967326106131075,-0.12961129929721354,-0.03468713636919856
1790690961669232000,7.119232177734375,0.164596103438735,-0.28813831195533274,0.19852190004661677
1790690961679270100,7.129270263671875,0.10775485679805279,-0.49772564976513384,0.2703961729072034
1790690961689309200,7.13930908203125,-0.20217910737991332,-0.2700508666008711,-0.23130013405457137
1790690961699347200,7.14934716796875,0.0044505496680736535,-0.11486205845475196,-0.30304040527194737
1790690961709385200,7.15938525390625,-0.22254326549470424,-0.026136311775445936,-0.23683044178336857
1790690961719423000,7.169423095703125,-0.23374416620582342,0.07697861026227473,-0.44356363227106627
1790690961729461200,7.179461181640625,-0.13601269077211617,0.03223404412865639,-0.2531399907451123
1790690961739499000,7.1894990234375,0.06514817947596312,-0.02204582759141922,-0.10650836386829614
1790690961749537300,7.199537353515625,0.24372137034088373,-0.004682604858279228,-0.034007775802910326
1790690961759575000,7.209574951171875,0.11644640503674746,0.17540858935415743,-0.48415633942224084
1790690961769613300,7.21961328125,0.28159692748785015,0.30006022041738034,-0.582629427003488
1790690961779651000,7.229651123046875,0.6360422335654496,0.019555179819464683,0.17889752744846044
1790690961789689000,7.239689208984375,0.7180740355640649,0.010005845707654953,0.4995346719484776
1790690961799727000,7.24972705078125,0.08046732916086911,-0.07887304570674895,0.7640382066205144
1790690961809765000,7.25976513671875,-0.36833500748127695,-0.18825462692379952,0.9358151614740491
1790690961819803100,7.26980322265625,-0.6642854544922709,-0.33610067109167574,0.8455095982573926
1790690961829841200,7.279841064453125,0.5413432576954365,-0.46966041575372214,1.105061867197603
1790690961839879000,7.28987890625,0.093684830391407,-0.50073535297513,1.4554752874106167
1790690961849918200,7.299918212890625,-0.2886316484302282,-0.14932430002689362,0.7985524706408381
1790690961859956200,7.309956298828125,-7.090757886898517,0.47968262807428835,0.6014896833613514
1790690961869994200,7.319994140625,8.634563784191013,-0.30310908659398555,-2.057916572408378
1790690961880032000,7.330031982421875,3.6380098808735606,0.893684869492054,-0.9661675565745681
1790690961890070300,7.3400703125,-5.070222366118431,0.39408933420181275,1.0245964377328753
1790690961900108000,7.35010791015625,-2.286983978974819,-0.19177812487483023,-0.5107512816853821
1790690961910146300,7.360146240234375,1.5820152164384722,-0.41876843290627,-0.7335468414407224
1790690961920184000,7.37018408203125,1.7137155969694255,-0.3549287056803703,-0.03489997540228069
1790690961930222000,7.38022216796875,-0.4624035764932632,-0.0908832169741392,-0.3011437778703868
1790690961940260000,7.390260009765625,-0.18234511061906813,-0.08178805637061595,-0.7260938220210373
1790690961950298000,7.400298095703125,0.4355100166097283,-0.024514263531565664,-0.33134185919202863
1790690961960336100,7.410336181640625,0.07580781291723251,0.08208557801246642,0.16100757742747662
1790690961970374100,7.4203740234375,-0.02305003619790077,-0.021093056911230087,0.5619650438331067
1790690961980412200,7.430412109375,-0.3822846223786473,-0.09058803341984749,0.928317060803622
1790690961990450200,7.4404501953125,-0.19178426235467194,-0.11029226632118225,1.2736305275291204
1790690962000488000,7.450488037109375,0.676989745503664,0.3360129928082228,1.2748591925412416
1790690962010527200,7.46052734375,0.7045069902434945,0.18103811967372893,1.0755615588817744
1790690962020564700,7.470564697265625,0.004200666560232639,0.22521043887734413,1.053191248576343
1790690962030602800,7.480602783203125,0.3809688636049628,-0.08969780658185482,1.0105741959907113
1790690962040640800,7.490640869140625,-0.8140876011639833,0.1575456004053354,-0.03466660503782332
1790690962050678800,7.5006787109375,-0.4314873369649052,0.6476444085538386,0.5985893588099628
1790690962060716800,7.510716796875,0.4375394766107201,0.10168225888609886,1.1678658947002143
1790690962070754800,7.5207548828125,0.8942252599790692,0.4050520422428846,2.107223039630055
1790690962080792600,7.53079248046875,1.2778306095674634,-0.19010463870465755,1.3564080333285033
1790690962090830800,7.540830810546875,0.10054419476687908,-0.5881383266180753,-0.06967110026050359
1790690962100868600,7.55086865234375,-1.1109531171932816,-0.2615606861531734,-2.1436744091928004
1790690962110907000,7.560906982421875,-0.5412979572489858,-0.3114583972662687,-3.526837032325566
1790690962120944600,7.570944580078125,-1.3531596990570425,-0.6615145284742117,-2.593808871221542
1790690962130983000,7.58098291015625,-0.36149843945950266,-0.7380974174171686,-1.1538581198748201
1790690962141020700,7.591020751953125,0.5482116821601987,-0.4027992948800325,-0.34666382188852873
1790690962151058700,7.60105859375,0.35910482232123614,-0.2309709021002054,-0.363216166630201
1790690962161096700,7.6110966796875,-0.09513152206838131,-0.004082885399460792,-0.1998965859333053
1790690962171134700,7.621134765625,-0.005306289714574814,0.10979250010550022,-0.00800447186929814
1790690962181173800,7.631173828125,0.06404167953878641,0.23901392330229282,-0.6257167274493723
1790690962191211800,7.641211669921875,0.00024140754044055937,0.41373803752362726,-1.0757228138580919
1790690962201249800,7.651249755859375,-0.14246318208575248,0.4304138625144958,-1.1566624367058276
1790690962211287800,7.661287841796875,0.17444120562672613,0.6401397320121527,-0.9778404587116092
1790690962221325800,7.671325927734375,0.0473608861118555,0.5713111104577779,-1.3083562423430382
1790690962231363800,7.68136376953125,-0.49646249796152114,0.47859775544703004,-1.4052258402504025
1790690962241401600,7.691401611328125,0.13408289175331592,0.2147884135842323,-0.03022601050818339
1790690962251439900,7.70143994140625,0.8769079222142696,-0.014307342293858527,0.6929208896070719
1790690962261477600,7.7114775390625,-0.014796587115526198,-0.01927519383430481,0.09180712688602506
1790690962271516000,7.721515869140625,-0.4803966215625405,-0.20896306843161583,0.25980624370127914
1790690962281553700,7.7315537109375,-0.04263853376507759,-0.4372591983646154,0.4111068122372031
1790690962291592000,7.741592041015625,0.3739864573717117,-0.3969336177170276,-0.34661457591932265
1790690962301629700,7.751629638671875,0.2751765390515327,-0.4578606723666191,-0.6340303092211484
1790690962311667700,7.761667724609375,-0.07834113078713417,-0.3699216921508312,-0.8269486901722848
1790690962321705700,7.771705810546875,-0.12434651063680648,-0.20136662195324898,-0.6465954840227961
1790690962331743700,7.78174365234375,0.07167875028848647,0.0040413843452930445,0.19853256757110357
1790690962341782800,7.79178271484375,0.12184534147083759,-0.18603461278676986,1.407989898136258
1790690962351820800,7.80182080078125,-0.0992488942593336,-0.1321048696786165,1.4781537138171492
1790690962361858800,7.81185888671875,0.06610241146087646,0.09247311651408671,0.5610345580499619
1790690962371896800,7.821896728515625,0.29852643497884274,0.17613456554114817,-0.17519987850692123
1790690962381934800,7.831934814453125,0.08758359090685844,0.1987339353621006,-0.023449447311647234
1790690962391972900,7.841972900390625,-0.2540601012647152,0.16129530832767486,0.018752229406125843
1790690962402010600,7.8520107421875,-0.2764756389513612,0.10126023408174514,0.06698650081902742
1790690962412049000,7.862048828125,-0.02393675590455532,0.0920814868479967,-0.07490300956461578
1790690962422086700,7.872086669921875,-0.00672901599407196,0.20325462765693664,-0.07239175739604979
1790690962432125000,7.882125,0.058286184751987456,0.12969663949310778,0.037594986639916894
1790690962442162700,7.89216259765625,-0.013082768934965133,0.0647498278081417,0.16345562816672027
1790690962452201000,7.902200927734375,0.03483428975492715,0.018931494963169097,0.3705813251033425
1790690962462238700,7.91223876953125,0.14222615845948458,0.07420096224248408,0.38710360350031403
1790690962472276700,7.92227685546875,0.0796902073085308,0.16704817276597023,0.1878407854259014
1790690962482314800,7.932314697265625,-0.08688011881262063,0.1935311060220003,0.10556235172245651
1790690962492352800,7.942352783203125,-0.14123480933457613,0.10404372732043266,0.12042393036559224
1790690962502390800,7.952390869140625,-0.038355449618399144,0.037812721043825145,0.08560388833172619
1790690962512429800,7.962429931640625,0.07688479449898004,-0.04465571880638599,0.05150448872260749
1790690962522467800,7.9724677734375,0.057819444023072715,-0.08758885160386562,-0.03215495101045817
1790690962532505900,7.982505859375,0.007197218027710914,-0.14359657002985476,-0.06246968098171055
1790690962542544000,7.9925439453125,0.08497370066940783,-0.2557902860581875,-0.11141655764337628
1790690962552582000,8.002581787109374,0.03613777356892824,-0.3691021924614906,-0.21697171244006602
1790690962562619600,8.01261962890625,-0.22461948724687097,-0.21256080066263675,-0.1155258926583454
1790690962572658000,8.022657958984375,-0.05645370862782001,-0.06817512608170509,0.0028422011559829114
1790690962582695700,8.03269580078125,0.4821045945242047,-0.06348083078563213,-0.08306523669958114
1790690962592734000,8.04273388671875,0.5190522231712937,0.028992870250344274,-0.10550174410901964
1790690962602771700,8.052771728515625,0.3275599295005202,0.11010989549160002,-0.015374094742536544
1790690962612809700,8.062809814453125,-0.01336041683256626,0.06225041220784187,0.058251624895259736
1790690962622847700,8.07284765625,-0.22969138368368147,0.05011690682172775,-0.023091537252068518
1790690962632885800,8.0828857421875,-0.20106617770195007,0.07537877385020256,-0.21365108011737466
1790690962642923800,8.092923828125,-0.09830781401693821,0.09857026434540749,-0.2384866845577955
1790690962652961800,8.1029619140625,0.023927403554320333,0.13876491208970546,-0.16460852452889083
1790690962662999800,8.112999755859375,0.15366291375309227,0.16961656194925306,-0.1035066247690469
1790690962673037800,8.123037841796876,0.2709434315264225,0.13957681299448013,-0.03360825509130955
1790690962683076900,8.133076904296875,0.2620499309748411,0.09707622639536857,0.021265417803451418
1790690962693115000,8.143114990234375,0.01268383274525404,0.10339549254477023,0.057452437341585755
1790690962703153000,8.15315283203125,-0.37885143305957314,0.12781564805209636,0.11172945951744913
1790690962713191000,8.16319091796875,-0.09699585463553667,-0.007594692912697792,0.24123254919983445
1790690962723228700,8.173228759765625,0.3723702543467283,-0.1402139418542385,0.1927500386469066
1790690962733267000,8.183266845703125,0.2247545118033886,-0.18977672192454337,0.027362200308591125
1790690962743304700,8.1933046875,-0.13376257375776768,-0.12012860068082809,0.009413725033402442
1790690962753343000,8.203343017578124,-0.17070406492501497,0.007224690556526183,0.007205985856056213
1790690962763380700,8.213380615234374,0.13965338536202906,0.06958616192340851,0.09842939456999301
1790690962773418800,8.223418701171875,0.19919746122062204,0.0881821413218975,0.20640410466380416
1790690962783456800,8.233456787109375,0.03639087154716253,0.09526303949356078,0.29804924592114984
1790690962793494800,8.243494873046876,0.016828385204076767,0.047888124856352805,0.27338497945964335
1790690962803532800,8.25353271484375,0.1200976210206747,0.031322774502635,0.10868081253655254
1790690962813570800,8.26357080078125,0.21280396176874636,0.029963761109113692,0.05297112720906734
1790690962823608800,8.27360888671875,0.17571575560718775,-0.0802262138813734,-0.007743015342205763
1790690962833646800,8.283646728515626,-0.006290624576807022,-0.25834464671611784,0.005407777327671647
1790690962843684600,8.2936845703125,-0.4172434152960777,-0.2538783149570227,-0.1516471900165081
1790690962853723600,8.3037236328125,-0.5333566428557038,-0.12658756756186484,-0.20210969540551305
1790690962863761700,8.31376171875,0.0456488214969635,-0.08874445137977599,-0.10358246648423373
1790690962873799700,8.323799560546876,0.6560869504675269,-0.09352759400308132,-0.032832156152278184
1790690962883837700,8.333837646484374,0.5956833351701498,-0.007410568517446517,0.11615633604899048
1790690962893875700,8.343875732421875,-0.04169628447890281,0.10022855294644832,0.09107589000202715
1790690962903913700,8.353913818359375,-0.27055969290584325,0.21197627877295017,0.011822905066981911
1790690962913952000,8.363951904296876,0.04746317744255066,0.3223112151920795,-0.1344838737696409
1790690962923989800,8.37398974609375,0.29421880091279745,0.3913637086302042,-0.21541838205084204
1790690962934027800,8.38402783203125,0.3050204731732607,0.4817798926144838,-0.2679746448487043
1790690962944065800,8.394065673828125,-0.02808949166983366,0.4440805688172579,-0.2956227494265884
1790690962954103800,8.404103759765626,-0.07545300813019275,0.30526947949826716,-0.19958909088671206
1790690962964141800,8.414141845703124,-0.03213379862457513,0.2317126603782177,-0.19584004055149853
1790690962974179800,8.424179931640625,0.0894236658155918,0.11247662462294102,-0.13740969808846712
1790690962984217900,8.4342177734375,-0.2588467510193586,-0.05372457592487335,0.03270648394599557
1790690962994256000,8.444255859375,-0.12257073313593864,-0.1367155783444643,0.09178666861988603
1790690963004293600,8.454293701171874,0.10505085853636265,-0.2110463044464588,0.5898743566304445
1790690963014332000,8.464331787109375,0.35125644690841434,-0.26442367436885833,0.7285766518127172
1790690963024371200,8.47437109375,0.07201660394072532,-0.08732698579728602,-0.5762438176196069
1790690963034409200,8.4844091796875,-0.13291852414906025,-0.16875789929330348,0.3618477643538266
1790690963044447200,8.494447265625,-0.213028418174386,-0.17755904538631437,0.26984489569999276
1790690963054485200,8.5044853515625,-0.017595570184290407,-0.19755203210115432,0.5852335450872779
1790690963064523300,8.514523193359375,0.031074644960463044,-0.0777075090587139,0.6012243104234337
1790690963074561000,8.52456103515625,-0.13267244043350218,0.0742968238323927,0.036572950115799904
1790690963084599300,8.534599365234374,0.17523206374347208,0.09305939196944236,-0.4980856421839446
1790690963094637000,8.544636962890625,0.40150750150382514,-0.0006482347756624221,-0.7293382107697427
1790690963104675300,8.55467529296875,0.21503157469034193,-0.08107435514330863,-0.8080562120452522
1790690963114713000,8.564713134765626,0.07101970185786485,-0.14895254410505293,-0.517394007635489
1790690963124751400,8.57475146484375,0.20573037012070416,-0.24106384156942365,-0.312514847516641
1790690963134789000,8.5847890625,0.2586243404403329,-0.23435469931960104,-0.6587286240827291
1790690963144827100,8.5948271484375,0.10398585965335369,-0.17743337318003177,-0.6425293305624276
1790690963154865200,8.604865234375,-0.12217238146811724,-0.010592705684900283,-0.33410306753367186
1790690963164903200,8.614903076171874,-0.22942717978954313,0.11345628331005572,-0.18306900444682686
1790690963174941200,8.624941162109375,0.18887129751741885,0.1060679266244173,-0.20785320749357342
1790690963184979200,8.634979248046875,0.19971067143976687,0.15182313110530377,-0.026142376190051435
1790690963195017200,8.645017333984375,-0.13449497968554497,0.09726268887817859,0.15090031717196106
1790690963205056300,8.65505615234375,0.2906850738286972,-0.03334755832850933,0.3700957335434854
1790690963215094300,8.66509423828125,0.343494872996211,-0.09995148957073688,0.5120628757406026
1790690963225132300,8.67513232421875,-0.10417524474561214,-0.004991816937923431,0.1785907265216112
1790690963235170000,8.685170166015626,-0.07737082445025444,-0.17223989619016647,0.09261858939938247
1790690963245208300,8.695208251953124,-0.186342071300745,-0.1931295394837856,0.24428711446486412
1790690963255246000,8.70524609375,-0.44571489202082154,-0.007195464462041855,0.27766499486640095
1790690963265284400,8.715284423828125,0.16886778940856456,-0.058926236221194264,0.3396621629655361
1790690963275322000,8.725322021484375,0.2044561124011874,-0.11238485468626022,0.3592520487722009
1790690963285360400,8.7353603515625,-0.31436025618761776,0.10490355902016162,0.11858458610922097
1790690963295398100,8.745398193359375,-0.35866555412113665,0.3239671657055616,0.006343377677351236
1790690963305436200,8.755436279296875,0.3018623014032841,0.32701544736027716,-0.06882336085736751
1790690963315474200,8.76547412109375,0.2705819047376513,0.15472177515625954,0.11356719633862375
1790690963325512200,8.77551220703125,-0.42324177892804143,0.08275310201048851,0.02051993319839239
1790690963335550200,8.78555029296875,-0.24533026684224604,0.023427637338638303,0.12201258779652416
1790690963345588200,8.795588134765625,0.20256752217561005,-0.13080021682083606,0.09833828222043811
1790690963355626200,8.805626220703125,0.12100976742953061,-0.2354676289975643,-0.07751264407373964
1790690963365664300,8.815664306640626,0.339860023625195,-0.23943302549719808,-0.03632693946547806
1790690963375702000,8.825701904296874,-0.10860884327888488,-0.27165187205672264,-0.2291385721065104
1790690963385741300,8.8357412109375,-0.7768491728767752,-0.21075871967673301,-0.3004584259547293
1790690963395779000,8.845779052734375,-0.42837271207571026,-0.09819792390167713,-0.3533738043885678
1790690963405817300,8.8558173828125,0.2594450091734528,-0.09863631531894207,-0.39248533307127653
1790690963415855000,8.865855224609374,0.40439620868265624,-0.09484218373298645,-0.26738829632811245
1790690963425893400,8.875893310546875,0.14848083494007586,-0.049265258428454396,-0.14605324246697127
1790690963435931100,8.88593115234375,0.00021276596784591673,0.10141688594818114,-1.2597300124704838
1790690963445969400,8.895969482421876,0.031077275308966635,0.030685061120986935,-1.2764403242528437
1790690963456007200,8.906007080078124,-0.20071020387113092,-0.3206909205138683,-0.48539457598030566
1790690963466045200,8.916045166015625,-0.6562009322360157,-0.5403869798839092,-1.275939973515272
1790690963476083200,8.926083251953125,-0.08779957174509763,-0.2811339861512184,-0.8171092870727181
1790690963486121200,8.936121337890626,0.23681962812840937,-0.06472995406389236,0.3133681764103472
1790690963496159200,8.9461591796875,0.2665183085605502,0.22022622072398662,0.4166276945505291
1790690963506197200,8.956197265625,0.11793284420222043,0.8065671425312757,0.29643998409360645
1790690963516235300,8.9662353515625,0.647181174956262,0.9038865300327539,0.5931864037878811
1790690963526273300,8.976273193359376,1.5652850309118627,0.6833166104376316,0.7746627687484026
1790690963536311000,8.98631103515625,1.4782786553710698,0.6031371583074331,0.4336540865447372
1790690963546349300,8.996349365234375,-0.8250567389458417,0.7176461655408144,0.17936112637221813
1790690963556387000,9.006386962890625,-0.6584200695902108,0.26568156547546384,0.5894258822105825
1790690963566426400,9.01642626953125,0.5396466829106211,0.08435060033500194,0.293019873451814
1790690963576464100,9.026464111328124,0.441648373234272,-0.06598842969238758,0.188290501954779
1790690963586502400,9.03650244140625,-0.18024726155698298,-0.18533844721615314,0.26804632184542715
1790690963596540200,9.0465400390625,-1.0929109722852706,-0.15332535236179828,0.08594283796250819
1790690963606578400,9.056578369140626,-0.8565332427054643,-0.16103344252109528,-0.04778291091620922
1790690963616616200,9.0666162109375,0.42452275864928957,-0.2957604773968458,-0.23602234027087687
1790690963626654200,9.076654296875,0.4915110130339861,-0.35370471684336663,-0.22645284015387296
1790690963636692200,9.086692138671875,-0.2251017178058624,-0.30117724174857136,-0.39117724614739413
1790690963646730200,9.096730224609376,-0.3566068680256605,-0.20208266126811503,-0.44192353691384195
1790690963656768300,9.106768310546874,-0.4069453086435795,-0.11600070709586142,-0.46403336965218184
1790690963666806300,9.11680615234375,-0.4289017043858766,0.04393032714128494,-0.5883237661875784
1790690963676844000,9.126843994140625,-0.19119564881175755,-0.0730675742983818,-0.2647983529001474
1790690963686882300,9.13688232421875,-0.7779886983007193,0.0012444471031427384,-0.3252279063563794
1790690963696920000,9.146920166015626,-1.6567954398736358,-0.05850538046061992,0.5703144275706261
1790690963706958300,9.156958251953125,2.271361462429166,-0.46697395314872264,0.7355166071437299
1790690963716996000,9.16699609375,2.2391028683811425,-0.25014906530082226,0.09510309969149529
1790690963727034400,9.177034423828125,-0.5577642311424017,-0.2614537186473608,0.5168225644230843
1790690963737072000,9.187072021484376,-0.027829087167978286,-0.4630874671041965,1.1759029245529322
1790690963747110100,9.197110107421874,0.27927228393256665,-0.15996259841918944,0.8535426095221191
1790690963757149200,9.207149169921875,-0.33508272622078655,0.13966273771226406,0.5167267028331757
1790690963767187200,9.217187255859375,-0.18855419439226387,0.12775602681934833,0.44079548273198305
1790690963777225200,9.22722509765625,-0.07022241400033236,0.14423603697717188,0.3216766436155885
1790690963787263200,9.23726318359375,-0.062390989722311496,0.15730068573355674,0.25110424713380636
1790690963797301200,9.24730126953125,0.05697334858775138,0.1533107393145561,-0.021875220264866945
1790690963807339300,9.25733935546875,-0.13260317458957432,0.11660393368601799,-0.3981654245343059
1790690963817377300,9.267377197265626,-0.8003335088387131,-0.011854103922843933,-0.7389300688490271
1790690963827415300,9.277415283203124,0.7165659690886735,0.2013917563945055,-0.27458259174637495
1790690963837453000,9.287453125,1.2158388482958078,0.37536534450948233,-0.41399654232934113
1790690963847491300,9.2974912109375,0.10374708246141671,0.24047230541706083,-0.1788021773152053
1790690963857529000,9.307529052734376,0.09702566525191068,0.20492986739277838,-0.32966698478236794
1790690963867567400,9.3175673828125,0.3917310806378722,0.16738193476498126,-0.4614362658310681
1790690963877605000,9.327605224609375,0.1792927373111248,0.10050561632215976,-0.44918066843524573
1790690963887643400,9.337643310546875,0.15819120483249424,-0.0015168343037366865,-0.49824916218258436
1790690963897681200,9.34768115234375,0.34555063648223877,-0.07766659252643585,-0.6503986756980419
1790690963907719200,9.35771923828125,0.29079262585639953,-0.10619418335258961,-0.7009642030701041
1790690963917757200,9.367757080078125,0.0005868599772453308,-0.17684475963711738,-0.6643121233034879
1790690963927795200,9.377795166015625,-0.3142524118989706,-0.28625615147054195,-0.4275885759606957
1790690963937834200,9.387834228515626,-0.3483767998188734,-0.28686639232337474,-0.1888534695997834
1790690963947872300,9.397872314453124,-0.3963897200986743,-0.15446400100290775,0.0186797121591866
1790690963957910300,9.40791015625,0.31816958534270523,-0.11119418359696864,0.19887319770231843
1790690963967948300,9.4179482421875,0.3901134163081646,-0.02045066735446453,0.16015614822991192
1790690963977986300,9.427986328125,-0.45481589784324167,0.05070844297409057,0.32528847743719813
1790690963988024300,9.4380244140625,-0.4979185419887304,0.06723696844875812,0.2908466941311955
1790690963998062000,9.44806201171875,-0.28361265122443435,0.08987900836765765,0.09964096231684089
1790690964008100400,9.458100341796875,-0.4059545440405607,0.28724340894222256,0.08920439704172313
1790690964018138000,9.46813818359375,-0.10149871901273727,0.42865152901709075,0.08855470096133648
1790690964028175600,9.478175537109376,0.25736498802900315,0.3647667936056852,0.20168255603462457
1790690964038213400,9.48821337890625,0.07537760480642318,0.3361842577219009,0.3296607011720538
1790690964048251600,9.498251708984375,-0.09104279145002364,0.2980254997193813,0.32489355983547863
1790690964058289400,9.508289306640625,-0.2537105571746826,0.239645791465044,0.2106358239494264
1790690964068327700,9.51832763671875,-0.17518121033906936,0.22337153301239013,0.01653846234679222
1790690964078365400,9.528365478515624,-0.08917056783735751,0.18437983131706714,-0.13788564503714443
1790690964088403700,9.53840380859375,-0.041803836506605144,0.08206804235577583,-0.09950893343500793
1790690964098441700,9.548441650390625,0.019705401945114134,-0.002483048987388611,-0.10653875900655985
1790690964108479500,9.5584794921875,0.046475043188035484,0.00017827917635440825,0.08261705454066395
1790690964118517800,9.568517822265624,-0.031039865908026692,-0.03561316517293453,0.22700367896966636
1790690964128556800,9.578556884765625,-0.09616407998651265,-0.18235797010064125,0.4710742280744016
1790690964138594600,9.588594482421875,-0.16580431018471717,-0.1774935789346695,0.5706676249224693
1790690964148632600,9.598632568359376,-0.18638912531286478,-0.16536474972367285,0.44085181602910156
1790690964158670600,9.608670654296875,-0.17176117276251315,-0.05405658435821533,0.3392989556763321
1790690964168708600,9.61870849609375,-0.19408143338114023,-0.15605097793340683,0.34518735612779855
1790690964178746600,9.62874658203125,-0.23035890768170356,-0.13997721048891543,0.19683190113306046
1790690964188784600,9.63878466796875,-0.2775122885227203,-0.09188274940550327,-0.004450403537601232
1790690964198822400,9.648822509765624,-0.3146715140938759,0.16652268758714198,-0.09409151149615645
1790690964208860700,9.658860595703125,-0.2593886028110981,0.4511690657734871,0.3271214650180191
1790690964218898400,9.6688984375,0.046837154498696326,0.46734454002678394,0.6176264330394565
1790690964228936700,9.678936767578126,0.7819850744605064,0.5663099411696195,-0.21241313582025467
1790690964238974500,9.688974365234374,0.2577078101173043,0.24728256995379924,-0.09576587444916367
1790690964249012700,9.6990126953125,-0.14906184969842434,0.14782266329228877,-0.41294294162318107
1790690964259050500,9.709050537109375,0.09622866965532302,-0.1052531031101942,-0.5477357352115213
1790690964269088500,9.719088623046876,0.17713555927723645,-0.3664052084624767,-0.4661810492053628
1790690964279126500,9.72912646484375,0.020847265456616876,-0.559835776719451,-0.3667305679593235
1790690964289164500,9.73916455078125,0.1021840709283948,-0.724991267606616,-0.31474238737300037
1790690964299202600,9.74920263671875,0.07329612235724925,-0.841429197075963,-0.23001338217966258
1790690964309240600,9.759240478515625,-0.09073679424077272,-0.8573901517957448,-0.3281720700494945
1790690964319279600,9.769279541015624,-0.4319321581229567,-0.6542775629580021,-0.17811770218238235
1790690964329317600,9.779317626953125,0.41351884181499476,-0.2967670240908861,-0.07880458358041942
1790690964339355600,9.789355712890625,0.29199294155687094,0.02160568260848522,-0.3184700295940041
1790690964349393700,9.7993935546875,-0.07643529716581106,0.1798147153586149,-0.3409842053495347
1790690964359431400,9.809431396484374,-0.07344605222195387,0.2291547925889492,-0.29080212433710695
1790690964369469700,9.8194697265625,0.11765578082650899,0.4006564376324415,-0.18022475746423006
1790690964379507500,9.829507568359375,0.26986235829144717,0.5217050757676363,-0.05430149902999401
1790690964389545700,9.839545654296876,0.3178662184819579,0.556599863538146,0.0008248334515839814
1790690964399583500,9.84958349609375,0.14712971259206534,0.5162310282707214,-0.022683906299248338
1790690964409621800,9.859621826171875,-0.35319881314784285,0.3519143262952566,-0.07108699494041502
1790690964419659500,9.869659423828125,-0.5005997438967228,0.1664385164350271,0.12959449429288505
1790690964429697500,9.879697509765625,-0.12706921359896658,-0.025726561930775643,0.2574417795922607
1790690964439735600,9.889735595703126,0.21780980723202228,-0.1699555846452713,0.033123905640468
1790690964449773600,9.899773681640625,0.28085692277550695,-0.263034850358963,0.16965411748066545
1790690964459811600,9.9098115234375,0.10517828430831432,-0.32740006276369094,0.2874253413803875
1790690964469849600,9.919849609375,-0.06327858621180057,-0.24737433989048002,0.30488698298670347
1790690964479887600,9.9298876953125,-0.011231295849382877,0.42118367735445494,0.4102992952466011
1790690964489925600,9.939925537109374,-0.17911212004721164,0.5249228687703609,0.3857811592575162
1790690964499963600,9.949963623046875,0.14988397973626852,0.35380759269595147,0.4246224196314811
1790690964510001700,9.960001708984375,0.3525131689712405,0.21420447621643543,-0.27957031703107055
1790690964520040400,9.97004052734375,-0.16666881805956363,0.04105681753158569,-0.24983152378425
1790690964530078700,9.98007861328125,-0.031826340110599996,-0.146587568539381,-0.09923903045244514
1790690964540116500,9.990116455078125,0.41212446484714743,-0.12437515220940112,-0.03768902159892022
1790690964550154800,10.00015478515625,0.2262999876797199,0.03982932156324386,0.05945208672620356
1790690964560192500,10.010192626953126,-0.09330722925066948,0.14450316348075865,0.0233587368208915
1790690964570230800,10.020230712890625,-0.19467092370688915,0.07098200019598007,-0.06464154512807727
1790690964580268500,10.0302685546875,-0.19861673872321842,-0.027934885630011556,-0.14255356378294526
1790690964590306600,10.040306640625,0.06916209129244089,-0.1599035617083311,-0.12567001432552932
1790690964600344600,10.050344482421876,0.3333487420350313,-0.30403204665780065,-0.12522263588421045
1790690964610382600,10.060382568359374,0.24839725319743156,-0.30973931838870045,-0.07188457505889237
1790690964620420600,10.070420654296875,-0.006146247670054435,-0.22741291735768318,-0.02121171485483646
1790690964630458600,10.080458740234375,-0.17891688973605632,-0.1854839931666851,0.031922493961453434
1790690964640496400,10.090496337890626,-0.1438917535841465,-0.08338146304190158,0.14695852074362337
1790690964650534700,10.10053466796875,0.009336860404908656,-0.050127428215742106,0.09131006408408283
1790690964660572400,10.110572509765625,0.2693576236397028,0.047431028738617896,-0.06534297139570117
1790690964670610700,10.120610595703125,0.2489160163745284,0.12778992908895015,-0.26835341503322124
1790690964680648400,10.1306484375,0.29059418067485093,0.12780337309241294,-0.4293227793421596
1790690964690686700,10.140686767578124,0.3129948130533099,0.14746668946146965,-0.3847924404811114
1790690964700724500,10.150724365234375,0.13268822252452372,0.21606325582563876,-0.2761558324124664
1790690964710762500,10.160762451171875,0.1971861213982105,0.2564782683223486,-0.17175087056420743
1790690964720801500,10.170801513671876,0.12748422414064406,0.2456944239795208,-0.014921967060863971
1790690964730839800,10.18083984375,-0.007779986351728439,0.23128186774551868,0.15579861060753464
1790690964740877600,10.190877685546875,0.042158933554589745,0.20581249544620514,0.2913311166472733
1790690964750915600,10.20091552734375,0.2067021377623081,0.14333879587650297,0.32523996212035416
1790690964760953600,10.21095361328125,0.2121156872436404,0.06098726040422916,0.2999623130008578
1790690964770991600,10.22099169921875,0.09706775082796812,-0.045642391756176945,0.3271641351159662
1790690964781029600,10.231029541015625,-0.011593699420988559,-0.1138274547100067,0.28373401258178055
1790690964791067600,10.241067626953125,0.02809241427928209,-0.19198095397055148,0.19515907255001366
1790690964801105400,10.25110546875,-0.014115326853096485,-0.23143150534927845,0.16577230761125683
1790690964811143700,10.261143798828124,0.09301964448094367,-0.22598960655629632,0.2213441188380122
1790690964821181400,10.271181396484375,0.15052227763980627,-0.1389496210068464,0.22904965171404182
1790690964831219700,10.2812197265625,0.17543547736108303,-0.07670330045223235,0.11869812948629259
1790690964841257500,10.291257568359375,0.13516396498829125,-0.09639408935010432,-0.11433175097033381
1790690964851295700,10.301295654296876,0.1830523821055889,0.002208323699235916,-0.22384148861169814
1790690964861333500,10.31133349609375,0.03217413063496351,0.0251139829903841,-0.351044923049584
1790690964871371500,10.32137158203125,-0.10012363126724957,0.0008253449082374572,-0.33187494315542276
1790690964881409500,10.331409423828125,0.02221124728620052,0.022058102551102635,0.030231252938881514
1790690964891447600,10.341447509765626,0.08158142788261175,-0.05174947645962238,0.44736879670768975
1790690964901485600,10.351485595703124,-0.2660311095654964,-0.10557868180274962,0.2164942676540464
1790690964911523600,10.361523681640625,-0.3906880013257265,-0.1035100588351488,0.25254750474467874
1790690964921562600,10.371562744140626,0.10353986945152283,-0.19677870964109898,0.2790457817003131
1790690964931600600,10.3816005859375,0.27625732002556325,-0.14619009365439414,0.07820537557825445
1790690964941638700,10.391638671875,0.14290771098285912,-0.15487667345702646,-0.09527304943092167
1790690964951676700,10.4016767578125,0.14427549220472574,-0.08120294995903968,-0.6200665196679532
1790690964961714400,10.41171435546875,0.28257366356551644,0.09457681079506873,-0.8102818522054701
1790690964971752700,10.421752685546876,-0.0420715475320816,0.07996610164046287,-0.8375807049542665
1790690964981790500,10.43179052734375,-0.3118897744208574,0.1769178248733282,-1.194900835815817
1790690964991828700,10.441828857421875,0.15849194134473799,0.15930033511817454,-1.057491503053531
1790690965001866500,10.451866455078125,0.2534793787673116,-0.009111527216434477,0.07971614546738565
1790690965011904800,10.46190478515625,0.27989012356996534,-0.13207389001846312,0.350616906895861
1790690965021942500,10.471942626953124,0.02712298472523689,0.027098434805870056,0.1530797070376575
1790690965031981000,10.48198095703125,-0.10783844342827796,-0.061868134891986844,-0.11455547672361135
1790690965042018800,10.492018798828125,-0.132495622561872,0.15062018505632876,-0.24643742436654864
1790690965052057000,10.50205712890625,-0.10092676434367895,-0.01530453663766384,-0.4666416524544358
1790690965062094800,10.5120947265625,-0.1784092324748635,-0.35141105294823644,-0.29600064282827077
1790690965072133000,10.522133056640625,-0.16167086364179847,-0.3580284252613783,-0.27834866628162563
1790690965082171000,10.5321708984375,-0.07131196280270814,-0.3429109356284141,0.10702084343507885
1790690965092209200,10.542209228515626,0.17487608991265297,-0.24044658645391462,0.17167064493484793
1790690965102247000,10.552246826171874,0.38341888710558414,-0.020750527083873746,0.3102188455339521
1790690965112285000,10.562284912109375,-0.021117022308707236,0.32539924433529377,0.4607577089823782
1790690965122323000,10.572322998046875,-0.6470981728479266,0.9860814136385917,0.8433045624937862
1790690965132362000,10.582362060546876,0.14529343707561493,0.4747931024670601,0.34135837242417033
1790690965142400000,10.59239990234375,0.9575552841171622,0.41192660418748855,-0.0027964988507330414
1790690965152438000,10.60243798828125,0.24591771134138105,0.40483343105614183,-0.103712522604689
1790690965162476000,10.61247607421875,-0.4776622281625867,0.44381110422611236,0.15332294120900333
1790690965172514000,10.62251416015625,-0.5426315439403057,0.23313071048259734,0.5467961162738502
1790690965182552000,10.632552001953124,-0.29346564445793627,0.3699316290229559,0.3072470631815493
1790690965192590000,10.642590087890625,0.02467442252933979,0.01710661762356758,0.2939882800925523
1790690965202627800,10.6526279296875,0.27530454934537407,0.03963350673019886,0.12832447435706854
1790690965212666000,10.662666015625,0.0813069948554039,-0.07550503057837486,0.3330449367828667
1790690965222703900,10.672703857421874,0.2232376774996519,-0.21470833408534526,0.2874082441151142
1790690965232742100,10.6827421875,-0.05005290167480707,-0.3402098599761724,-0.02778773224428296
1790690965242780000,10.69277978515625,-0.3685992113754153,-0.2606692902714014,0.11186346116065979
1790690965252818000,10.70281787109375,-0.20452128659188745,-0.26183482691943644,0.0018356179293245076
1790690965262856000,10.71285595703125,0.174344467253983,-0.2225280679255724,0.05991261691004038
1790690965272894000,10.72289404296875,-0.05551233612447977,-0.1578741017073393,0.23326836538761853
1790690965282932000,10.732931884765625,-0.020780629961192607,-0.25283143625259397,0.47963484340980644
1790690965292970000,10.742969970703125,0.21404753208905458,-0.07752981440424919,0.40718635085783894
1790690965303008000,10.753008056640626,-0.09451777408421039,0.05127601372897625,0.2366348461460322
1790690965313046000,10.7630458984375,-0.2792266912251711,0.16701602406203747,-0.06271656841486692
1790690965323083800,10.773083740234375,0.03159165457189083,0.10922025317549705,-0.3021737054400146
1790690965333122000,10.7831220703125,0.3698778530091047,-0.002685293561220169,-0.26212913369089363
1790690965343159800,10.793159912109376,0.14102379693239928,0.07620762588977813,-0.35662228479050095
1790690965353199000,10.80319921875,-0.015192308434844017,0.17202245404720307,-0.5576691732700914
1790690965363236900,10.81323681640625,-0.3014239099860191,0.11996727263927459,-0.7782001490943133
1790690965373275100,10.823275146484375,-0.13313947342336177,0.20081074163615703,-0.10296893769577145
1790690965383313000,10.83331298828125,-0.2083729935839772,0.25716449702084065,0.026700521529465913
1790690965393351200,10.84335107421875,0.3782981830909848,0.05929214692413807,0.32770321042872963
1790690965403389000,10.853388916015625,0.5598503897666931,0.19022972638905047,0.01849953328669071
1790690965413427000,10.863427001953125,0.42246553385853763,0.050392801153659815,-0.12013481122590601
1790690965423465000,10.87346484375,0.34869302616119385,0.2328489709317684,-0.3045520519439131
1790690965433503000,10.8835029296875,0.2716086174368858,-0.13429098154604435,-0.20728717110864817
1790690965443541000,10.893541015625,0.03326514074206352,-0.06101940910816192,-0.13696246577762067
1790690965453579000,10.9035791015625,-1.1908534601211547,-0.04004384109675884,0.19826924045979977
1790690965463617000,10.913616943359376,-1.0252022946715353,1.591836645489931,-1.6819953475818037
1790690965473655000,10.923655029296874,3.093914401860535,-0.6264309401333331,0.9132338387664407
1790690965483692800,10.93369287109375,-1.5535232814475892,-0.9883815072745085,1.5072794166669248
1790690965493731000,10.94373095703125,-1.7610381968975066,-1.5807926889061927,0.3097814039647579
1790690965503768800,10.953768798828126,0.6571747457042336,-1.2757003195405006,0.14756846933551132
1790690965513807000,10.96380712890625,-0.14320435584187508,0.33539866030216214,-1.6117361087024211
1790690965523844900,10.973844970703125,-0.5275608160585165,0.32787527906000613,-0.6562673485357314
1790690965533883100,10.983883056640625,0.7713461915463209,0.7417121007829904,-0.7184973024774343
1790690965543921000,10.9939208984375,0.24624387455582616,0.9834218390405177,-0.49719125062748787
1790690965553959000,11.003958984375,-0.258407775080204,0.630271248948574,0.3861691356617957
1790690965563998000,11.013998046875,-0.05151274509429931,0.7050012035012245,0.49333033741563553
1790690965574036000,11.024035888671875,0.5286892355665564,0.4748088845580816,0.4737503884810954
1790690965584074000,11.034073974609376,0.23598902252316473,0.10122165563702583,0.2884668132573366
1790690965594112000,11.044112060546874,-1.4266671260774135,-0.37938685511052606,0.4811337767306715
1790690965604150000,11.05414990234375,3.3734938520461317,-0.42327100502252574,1.13562775891833
1790690965614188000,11.06418798828125,-0.32635493762493134,-0.4232815264165401,0.48245055841766293
1790690965624226000,11.07422607421875,-1.6924837161093949,-0.6728267806053161,-0.666276555244252
1790690965634264000,11.08426416015625,0.17501929777562616,-0.5408528438299894,-0.9440896533444523
1790690965644301800,11.0943017578125,-0.2998532996684313,-0.23089549877643584,-0.45434075461216267
1790690965654340000,11.104340087890625,-0.22742285422980785,-0.14873451744019983,0.34658224455229936
1790690965664377900,11.1143779296875,0.5539990333899856,-0.23389409607052802,0.24928821068778634
1790690965674416000,11.124416015625,0.4752051903992891,-0.06893091288506985,-0.2243583520926535
1790690965684454000,11.134453857421875,0.19450696531683206,0.01307458562850952,-0.45601752871796486
1790690965694492200,11.1444921875,0.2894479332491755,0.13472761939764022,-0.677380352256447
1790690965704530000,11.154530029296875,-0.06335925023257732,0.2616512870460749,-0.35970914488993583
1790690965714568000,11.16456787109375,0.01910305213779211,0.2972504236936569,-0.16591873034462332
1790690965724606000,11.17460595703125,0.34879297940433024,0.4285363782048225,-0.2422927988424897
1790690965734644000,11.18464404296875,0.34196167207956313,0.4701256951779127,-0.190273930856958
1790690965744682000,11.194681884765625,0.2043994137778878,0.391787487000227,-0.22957827869802713
1790690965754720000,11.204719970703126,0.1046428622573614,0.3021826193988323,-0.42040728615447875
1790690965764757800,11.2147578125,0.014351765957474708,0.06463409247398376,-0.46038259205967186
1790690965774796000,11.224796142578125,0.011153846698999404,-0.21080898855924604,-0.24350801985114812
1790690965784833800,11.234833740234375,-0.06150894619077444,-0.4090729683220386,-0.16704846502691506
1790690965794873000,11.244873046875,-0.13983750975728035,-0.28967268191576,-0.2688818228214979
1790690965804910800,11.254910888671875,0.27726766611188647,-0.19558102428913116,-0.24097462891601024
1790690965814949000,11.26494921875,0.21576398061811922,-0.2019189951390028,-0.13929697313979267
1790690965824987000,11.27498681640625,0.1243263446316123,-0.06787994252741336,-0.052413420261070126
1790690965835025200,11.285025146484376,0.24647329939752816,0.10899112059473991,-0.07641732311770319
1790690965845063000,11.29506298828125,0.3334448958858847,0.15764380008280277,-0.07628872830197214
1790690965855101000,11.305100830078125,-0.09820055425018072,0.12478081040084361,-0.3239092980384827
1790690965865139000,11.315138916015625,-0.016463059023022652,0.11820318557620048,-0.45814328870028254
1790690965875177000,11.325177001953126,-6.085767190128564,-0.17994740182757377,0.5720124636601657
1790690965885215000,11.335215087890624,7.099419332259893,-0.09633096098601818,-0.5037614958632737
1790690965895253000,11.3452529296875,-1.3260241471111773,0.9489484915524721,0.7968336840242147
1790690965905291000,11.355291015625,-1.325735685558617,-0.8678139306545257,1.5707444653615354
1790690965915329000,11.3653291015625,1.8521607755854725,-0.21498715102672575,-0.09180106247141957
1790690965925366800,11.37536669921875,-0.31970132495462894,-0.34914778419137,0.39296296052038665
1790690965935405000,11.385405029296875,-0.25631284862756726,-0.27440087850391864,-0.03932590208575129
1790690965945442800,11.39544287109375,-0.674505527472496,-0.1307078623622656,-0.08828384813070296
1790690965955481000,11.405481201171876,-0.216833071154356,0.03509937043190002,0.6850706875633448
1790690965965518800,11.415518798828124,0.8826026267245412,0.24181378315389154,0.4480915580242872
1790690965975557000,11.42555712890625,0.503768144799769,0.11110767435729503,0.27310470121353864
1790690965985595000,11.435594970703125,-0.3079588647127151,0.12115151398777961,0.20191914126947522
1790690965995633000,11.4456328125,-0.3258244840100407,0.14364859247803688,0.4152808099862188
1790690966005671000,11.4556708984375,0.013598901763558387,0.13216858256459235,0.2722112595051527
1790690966015710000,11.4657099609375,-0.11272095477283,0.1904033293902874,0.08578589383512734
1790690966025748700,11.475748779296875,-0.006592237871885299,0.17378011136949062,0.0825316412795335
1790690966035786800,11.485786865234376,0.3056482496827841,-0.0689502021074295,-0.2844187799755484
1790690966045824800,11.49582470703125,0.3806400700420141,-0.9492641333729028,-1.0090946980226785
1790690966055862800,11.50586279296875,0.3531307163476944,-0.27895722663402556,-0.7057143202066422
1790690966065900500,11.515900634765625,-0.4347378631934523,0.2942354597866535,-0.044905821109935636
1790690966075938800,11.525938720703126,-0.3365700421690941,0.18393793276846407,0.058981546605005854
1790690966085976600,11.5359765625,0.0797685332417488,0.4771265138506889,-0.10004983537867665
1790690966096014800,11.546014892578125,-0.011246201157569885,0.36249241893291473,-0.09452646884731948
1790690966106052600,11.556052490234375,0.21682605689167975,0.3659393445163965,-0.05525595021061599
1790690966116090600,11.566090576171876,0.30409079110771414,0.22661972115337847,-0.110464773343876
1790690966126128600,11.576128662109374,-0.03181026575863361,0.05888882682025432,-0.010480331351608037
1790690966136166700,11.586166748046875,-0.1799570464387536,-0.0033744448691606518,0.3221205879908055
1790690966146204700,11.59620458984375,-0.20618717397749423,-0.0850578718215227,0.43480954019017515
1790690966156242700,11.60624267578125,-0.2500406364902854,-0.07672668132781982,0.4861774699863046
1790690966166280700,11.61628076171875,-0.16430676510334014,-0.11756781028211116,0.42867702878452835
1790690966176318700,11.626318603515625,-0.004811784195899963,-0.15221943694651127,0.14296141393147407
1790690966186356500,11.6363564453125,0.036057401809096334,-0.16997428934574127,-0.14873393291831016
1790690966196394800,11.646394775390625,0.0033989947885274883,-0.11345160713493824,-0.1624864908736199
1790690966206432500,11.6564326171875,-0.12585457711219786,-0.007539163333177566,-0.029781609475240108
1790690966216470800,11.666470703125,-0.03629296413064003,0.08644201965630054,0.11162081151120364
1790690966226508500,11.676508544921875,-0.12468816368132829,0.08505962538719176,0.3464354564927518
1790690966236546800,11.686546875,-0.27373043189644813,0.118629302033782,0.505752669680491
1790690966246585600,11.696585693359374,-0.05851151794046163,0.1874491557598114,0.5692502324052154
1790690966256623900,11.706623779296875,0.24009704236388205,0.20748539709448813,0.3128949328754097
1790690966266661600,11.71666162109375,0.09109159902781247,0.13927636874318122,0.15494382040910423
1790690966276699600,11.72669970703125,-0.1340773387953639,0.08941840511858462,0.0435634665902704
1790690966286737700,11.736737548828126,-0.05611147106140851,0.04997895965576172,-0.13957491329833865
1790690966296775700,11.746775634765624,-0.051825756566226476,0.006360767203569412,-0.16865326987504958
1790690966306813700,11.756813720703125,-0.2878872598037123,-0.00360240840613842,0.3622864480320364
1790690966316851700,11.766851806640625,-0.9071279961720109,-0.10065759201347828,1.2235619898937642
1790690966326889700,11.7768896484375,0.006734276691079139,0.020073066213726995,0.9223375480026006
1790690966336927700,11.786927734375,1.0311477590724825,-0.26463234868347646,0.10461400148905813
1790690966346965500,11.796965576171875,-0.7952811938852071,0.010702011278271674,0.6093692576300352
1790690966357003800,11.807003662109375,-2.398319909130037,-0.16278583914637565,0.9519188856653868
1790690966367041500,11.81704150390625,0.20013444980978964,-0.13802841450870038,0.08885759289804845
1790690966377079800,11.827079833984374,3.7736148676276207,-0.41846506604552264,-1.739410886979103
1790690966387117600,11.83711767578125,-0.23292408199459314,0.2657277427047491,-1.3559769484348594
1790690966397155800,11.84715576171875,-1.2328878905132412,0.02089373494684696,-1.0109162874266504
1790690966407193600,11.857193603515626,0.7285100893825293,-0.3560848899781704,-1.1601976250946522
1790690966417231600,11.867231689453124,-0.4592942123010754,0.07529752530753613,-0.23840437656920402
1790690966427269600,11.87726953125,-0.6670049425840378,0.12682839058041573,0.5724852688036859
1790690966437307600,11.8873076171875,0.0415226814776659,0.11651567088067531,1.2614039370320738
1790690966447345700,11.897345703125,-2.7136311824321746,0.9911381125062704,-1.3009399747371673
1790690966457383700,11.9073837890625,-3.0033824825420976,0.29799685814678667,-2.6424647655799984
1790690966467421700,11.917421630859375,0.7542822440207004,0.7386901226133108,-1.0945127814587206
1790690966477459700,11.927459716796875,9.162192404788732,-0.23972411739826202,-0.05737666869163513
1790690966487498800,11.937498779296876,0.944159211449325,0.36309798361063,-0.35038821270652115
1790690966497536800,11.947536865234374,-4.053488624584674,0.12264847454726695,-0.6156771986678242
1790690966507574500,11.957574462890625,-2.4063415952831506,-0.37706513416469095,-0.0012703852619975805
1790690966517612800,11.96761279296875,-0.07006167048066854,-0.6302952143460512,0.8608541746445
1790690966527650600,11.977650634765626,3.3477325110629197,-0.4057359328538179,1.1042702784284948
1790690966537688800,11.987688720703124,-1.0267889793410896,-0.16957739898264407,0.49826235045772044
1790690966547726600,11.9977265625,-0.9681517891943454,-0.3261719822734594,0.2873980880472809
1790690966557764900,12.007764892578125,0.8784317707806825,-0.3940349736660719,0.1700494369411841
1790690966567802600,12.017802734375,0.6080456808760761,-0.1050917750686407,-0.03406787195969373
1790690966577840600,12.027840576171876,-0.36979046698659657,0.2191197207868099,-0.7964004802387207
1790690966587878700,12.037878662109375,0.0479798947930336,-0.12887597075998783,-1.3686355006083846
1790690966597916700,12.047916748046875,-0.6371405501961708,-0.09356909505724906,-1.8561466303512453
1790690966607954700,12.05795458984375,-0.46155455844849347,-0.4076508265644312,-1.3103938856504858
1790690966617992700,12.06799267578125,1.1561521490961313,-0.25753800650835035,-0.8372907820969819
1790690966628030500,12.078030517578124,0.2111874664828181,0.2225584630638361,-0.28621223926357925
1790690966638068700,12.08806884765625,0.46111061407327647,0.31091128477752206,-0.14447079558111725
1790690966648106500,12.0981064453125,0.6899184929206967,0.4667845680564642,-0.03418780854493379
1790690966658144800,12.108144775390626,-0.9468222931787371,0.12245792041122913,0.5449751113917678
1790690966668182500,12.1181826171875,-0.25941665986180307,0.5750619874238968,1.3366376033231615
1790690966678220800,12.128220703125,0.29961832186877724,-0.25345278302133084,2.009803406624496
1790690966688258600,12.138258544921875,0.7147521976649761,-0.09631810150444507,0.944734161793068
1790690966698296600,12.148296630859376,0.3418903604090214,-0.02701017200052738,-0.02696121829226613
1790690966708334600,12.15833447265625,0.3994371249705553,-0.1842412996292114,0.03678440090939402
1790690966718372600,12.16837255859375,0.19289982238113879,-0.2789958050787449,0.13192469080612063
1790690966728411600,12.17841162109375,-0.5714648397147655,-0.28961013807356356,0.18871062706299124
1790690966738449700,12.18844970703125,-0.5412661008059978,-0.3250532073765993,0.401202454142645
1790690966748487700,12.19848779296875,0.034005729976296424,-0.2812041287779808,0.5051788883805275
1790690966758525700,12.208525634765625,0.06403729562461376,-0.12923019102513789,0.18957820367775857
1790690966768563700,12.218563720703125,-0.11145897201299666,0.012484803041815757,0.13043744792304932
1790690966778601700,12.228601806640626,0.07493103008270263,0.1250643035173416,0.05107011589333415
1790690966788639500,12.238639404296874,0.08190817561894655,0.1978226657360792,0.07710545151233672
1790690966798677800,12.248677734375,-0.045508536243438716,0.3091962975531816,0.047228126577660436
1790690966808715500,12.258715576171875,-0.43961423705816266,0.4318897802859544,-0.02243848017081618
1790690966818753800,12.26875390625,-0.2625266085758805,0.3570551963150501,-0.09691314478814601
1790690966828791600,12.27879150390625,0.38084231461584567,0.2702197934269905,-0.004244651832431555
1790690966838829800,12.288829833984375,0.4775771802276373,0.3366004373073578,-0.03771912447623908
1790690966848867600,12.29886767578125,-0.0009352350234985351,0.3150140439212322,-0.11140168886780738
1790690966858905600,12.308905517578125,-0.3940612771511078,0.1902636286586523,-0.2972842528980225
1790690966868943600,12.318943603515624,-0.16021102022230624,0.03337678442299366,-0.24109409057721495
1790690966878981600,12.328981689453125,0.29194705658853054,-0.007579495343565941,-0.28814306119568645
1790690966889019600,12.33901953125,0.10225918199121951,-0.04898527244329452,-0.327495047570765
1790690966899057700,12.3490576171875,-0.09845131414085626,-0.1912485480427742,-0.18256313728392123
1790690966909095700,12.359095703125,0.25798691931962964,-0.2582195590317249,-0.18935279742404817
1790690966919133700,12.3691337890625,0.352527197496593,-0.2469219199478626,-0.2689498465564102
1790690966929171500,12.37917138671875,-0.04421352799683809,-0.13581073845922947,-0.3338231546137482
1790690966939209700,12.389209716796875,0.06939677683115004,0.2187719302624464,-0.4576327088296413
1790690966949247500,12.39924755859375,1.1481468295559287,0.5000292505323887,-0.09641929685659706
1790690966959285800,12.40928564453125,0.41410336370468137,0.49391924321949476,-0.20521577166207133
1790690966969323500,12.419323486328125,-0.6866174055486917,0.21605741060674188,-0.04856945818401873
1790690966979362800,12.42936279296875,0.0747802234351635,-0.07835223670303822,-0.02687514744400978
1790690966989400600,12.439400634765626,0.6299824951350689,-0.4664297632694244,0.19063238890580833
1790690966999438800,12.44943896484375,-0.27545272564440965,-0.5483604429811239,-0.024320202264189718
1790690967009476600,12.4594765625,-0.7540221317797898,-0.581821983078122,-0.09427768171802163
1790690967019514600,12.4695146484375,-0.47584202699810263,-0.7362275318920611,-0.3046588733192533
