time,seconds_elapsed,z,y,x
1790690954612477000,0.062476806640625,-0.07620793581008911,0.2568802833557129,0.07426945120096207
1790690954622516000,0.072515869140625,-0.16221335530281067,0.1623760610818863,-0.035765841603279114
1790690954632553700,0.0825537109375,-0.16279739141464233,0.05723711475729942,-0.09714185446500778
1790690954642592000,0.092592041015625,-0.11674988269805908,0.0024633994325995445,-0.14350129663944244
1790690954652629800,0.102629638671875,-0.055750176310539246,0.021678904071450233,-0.17944225668907166
1790690954662668000,0.11266796875,-0.02993512898683548,0.0024435892701148987,-0.21588802337646484
1790690954672705800,0.122705810546875,-0.043507397174835205,-0.04945742338895798,-0.2688942551612854
1790690954682743800,0.132743896484375,-0.062369391322135925,0.1547573208808899,-0.27681830525398254
1790690954692781800,0.14278173828125,-0.07494696974754333,0.3504945933818817,-0.2907237410545349
1790690954702819800,0.15281982421875,-0.07415749132633209,0.4633873999118805,-0.2949211001396179
1790690954712857900,0.16285791015625,-0.04446937143802643,0.5211401581764221,-0.28418853878974915
1790690954722896000,0.172895751953125,0.01939186081290245,0.5313688516616821,-0.2433183193206787
1790690954732934000,0.182933837890625,0.07442928105592728,0.48695510625839233,-0.16261069476604462
1790690954742972000,0.192971923828125,0.1389220952987671,0.5155577659606934,-0.07303492724895477
1790690954753010000,0.203010009765625,0.1595325767993927,0.6098765730857849,0.014701846055686474
1790690954763048000,0.2130478515625,0.1458941102027893,0.7285372614860535,0.09503065794706345
1790690954773086000,0.2230859375,0.12898090481758118,0.8344506621360779,0.16388589143753052
1790690954783124000,0.2331240234375,0.11343397200107574,0.8796914219856262,0.22470557689666748
1790690954793162000,0.243161865234375,0.10040019452571869,0.8723445534706116,0.2815896272659302
1790690954803200000,0.253199951171875,0.10042762756347656,0.8499931693077087,0.339322954416275
1790690954813238800,0.26323876953125,0.08845961093902588,0.78944993019104,0.40532347559928894
1790690954823277000,0.273277099609375,0.08274282515048981,0.7203013300895691,0.4728836119174957
1790690954833314800,0.283314697265625,0.09046093374490738,0.6069273948669434,0.5005857944488525
1790690954843352800,0.293352783203125,0.10592435300350189,0.43930500745773315,0.4489120841026306
1790690954853390800,0.303390869140625,0.12282264232635498,0.32925015687942505,0.35708335041999817
1790690954863428900,0.313428955078125,0.11580099910497665,0.207771435379982,0.27830418944358826
1790690954873467000,0.323466796875,0.11905857920646667,0.09726756811141968,0.22454534471035004
1790690954883505000,0.3335048828125,0.1330592781305313,0.025989016517996788,0.2040327787399292
1790690954893543000,0.34354296875,0.13947908580303192,-0.02352900058031082,0.21529288589954376
1790690954903581000,0.353580810546875,0.1322929710149765,-0.0680219978094101,0.24550068378448486
1790690954913618700,0.36361865234375,0.11368253082036972,-0.09799854457378387,0.3072713613510132
1790690954923657000,0.373656982421875,0.1236310675740242,-0.06439094245433807,0.41095876693725586
1790690954933694700,0.38369482421875,0.14594729244709015,0.054011598229408264,0.5684213638305664
1790690954943733000,0.39373291015625,0.19779211282730103,0.20624402165412903,0.7813051342964172
1790690954953770800,0.403770751953125,0.3001762628555298,0.3727078139781952,1.063255786895752
1790690954963809000,0.41380908203125,0.4065430462360382,0.5393293499946594,1.3948938846588135
1790690954973847000,0.423846923828125,0.5210430026054382,0.7094049453735352,1.720193862915039
1790690954983884800,0.433884765625,0.6064879894256592,0.8989724516868591,2.0038182735443115
1790690954993923000,0.443923095703125,0.68959641456604,1.0519330501556396,2.2134041786193848
1790690955003961900,0.4539619140625,0.9093878269195557,0.9999784827232361,2.264270782470703
1790690955013999900,0.463999755859375,0.9023557305335999,0.8970392942428589,2.3004233837127686
1790690955024038100,0.4740380859375,0.828058123588562,0.635406494140625,2.2667324542999268
1790690955034076000,0.484075927734375,0.736748218536377,0.06131047382950783,2.0817337036132812
1790690955044114200,0.4941142578125,0.5206422209739685,-0.6563665866851807,1.8515750169754028
1790690955054152000,0.50415185546875,0.281320720911026,-1.213894248008728,1.6261037588119507
1790690955064190000,0.51418994140625,0.051704104989767075,-1.5425047874450684,1.4081051349639893
1790690955074228000,0.52422802734375,-0.17397242784500122,-1.6627789735794067,1.2008755207061768
1790690955084266000,0.534265869140625,-0.384319007396698,-1.5896013975143433,0.9796879291534424
1790690955094304000,0.544303955078125,-0.542793333530426,-1.380694031715393,0.7400401830673218
1790690955104342000,0.554342041015625,-0.6344318389892578,-1.128975749015808,0.5310245752334595
1790690955114380000,0.564380126953125,-0.7005554437637329,-0.8460413217544556,0.3695845603942871
1790690955124418000,0.57441796875,-0.7148559093475342,-0.5551771521568298,0.25454631447792053
1790690955134455800,0.584455810546875,-0.695812463760376,-0.3043225109577179,0.20809704065322876
1790690955144494000,0.594494140625,-0.6330087780952454,-0.08281203359365463,0.22727280855178833
1790690955154531800,0.60453173828125,-0.5749651789665222,0.0854472815990448,0.3210301995277405
1790690955164570000,0.614570068359375,-0.5094327926635742,0.15086208283901215,0.47247979044914246
1790690955174608000,0.62460791015625,-0.43325841426849365,0.11424681544303894,0.6751673817634583
1790690955184646100,0.634646240234375,-0.3639693558216095,-0.027546538040041924,0.9193925857543945
1790690955194684000,0.644683837890625,-0.3091607093811035,-0.22438156604766846,1.1828614473342896
1790690955204723200,0.65472314453125,-0.2922419607639313,-0.4358937740325928,1.4402995109558105
1790690955214761000,0.664760986328125,-0.3082805871963501,-0.576188862323761,1.6373862028121948
1790690955224799000,0.674799072265625,-0.3115902841091156,-0.6599904298782349,1.7579435110092163
1790690955234837000,0.6848369140625,-0.27707919478416443,-0.7537217140197754,1.8260644674301147
1790690955244875000,0.694875,-0.21241237223148346,-0.8177170753479004,1.8536901473999023
1790690955254913000,0.7049130859375,-0.11070412397384644,-0.8622986674308777,1.866033673286438
1790690955264951000,0.714950927734375,-0.02160133607685566,-0.8767101168632507,1.8929599523544312
1790690955274989000,0.724989013671875,0.03341051563620567,-0.8629772663116455,1.9350686073303223
1790690955285027000,0.735027099609375,0.05242875590920448,-0.8389147520065308,1.9899675846099854
1790690955295064800,0.74506494140625,0.042819537222385406,-0.8310861587524414,2.064591646194458
1790690955305103000,0.75510302734375,0.0069189490750432014,-0.8516764640808105,2.1553118228912354
1790690955315140900,0.765140869140625,-0.041650980710983276,-0.8682708740234375,2.2483019828796387
1790690955325179100,0.77517919921875,-0.08502299338579178,-0.8722161650657654,2.325571060180664
1790690955335217000,0.785216796875,-0.10960104316473007,-0.8383069634437561,2.344623327255249
1790690955345255200,0.795255126953125,-0.10050688683986664,-0.8501489162445068,2.30735182762146
1790690955355293000,0.80529296875,-0.05562463402748108,-0.9230399131774902,2.2247350215911865
1790690955365331000,0.8153310546875,-0.009943844750523567,-1.0327304601669312,2.107883930206299
1790690955375369000,0.825368896484375,0.018651582300662994,-1.1297798156738281,1.9727612733840942
1790690955385407000,0.835406982421875,0.05245717614889145,-1.233892798423767,1.8483961820602417
1790690955395446000,0.845446044921875,0.082769013941288,-1.3521294593811035,1.7664648294448853
1790690955405484000,0.855484130859375,0.08493217825889587,-1.433690071105957,1.723322868347168
1790690955415522000,0.86552197265625,0.057146888226270676,-1.4913156032562256,1.6804534196853638
1790690955425560000,0.87556005859375,0.060119736939668655,-1.5860103368759155,1.6144840717315674
1790690955435598000,0.88559814453125,0.09955822676420212,-1.7508409023284912,1.5261119604110718
1790690955445636000,0.895635986328125,0.1531633585691452,-1.9513156414031982,1.408659815788269
1790690955455673900,0.905673828125,0.2061980813741684,-2.1027846336364746,1.2665094137191772
1790690955465712000,0.915712158203125,0.3604711592197418,-2.252267360687256,1.152025818824768
1790690955475750000,0.92575,0.44782736897468567,-2.242778778076172,1.0633671283721924
1790690955485788200,0.9357880859375,0.5502370595932007,-2.0726072788238525,1.0230355262756348
1790690955495826000,0.945825927734375,0.6120995879173279,-1.7378991842269897,1.021728515625
1790690955505864200,0.9558642578125,0.6994841694831848,-1.2458962202072144,0.9821642637252808
1790690955515902000,0.96590185546875,0.726809561252594,-0.570610761642456,0.8585882782936096
1790690955525940000,0.97593994140625,0.6393282413482666,0.019785135984420776,0.668967068195343
1790690955535978000,0.98597802734375,0.5492135286331177,0.43683668971061707,0.4140165150165558
1790690955546016000,0.99601611328125,0.4421646296977997,0.6751087307929993,0.11985720694065094
1790690955556054000,1.006053955078125,0.30685847997665405,0.6362490057945251,-0.1331644058227539
1790690955566092000,1.016092041015625,0.14549481868743896,0.46028587222099304,-0.3387588858604431
1790690955576131000,1.026131103515625,0.031909406185150146,0.2777048945426941,-0.5028306841850281
1790690955586169000,1.036169189453125,-0.06900682300329208,0.12897829711437225,-0.6420302391052246
1790690955596207000,1.04620703125,-0.1817144751548767,0.03772668540477753,-0.7923526167869568
1790690955606245000,1.0562451171875,-0.26586946845054626,-0.07450015097856522,-0.9330207109451294
1790690955616283000,1.066282958984375,-0.30928298830986023,-0.3016728460788727,-1.0153486728668213
1790690955626321200,1.076321044921875,-0.2786601781845093,-0.522276759147644,-1.0579532384872437
1790690955636359000,1.08635888671875,-0.20711356401443481,-0.7020606398582458,-1.0384190082550049
1790690955646397200,1.096397216796875,-0.13993003964424133,-0.801719605922699,-0.961313009262085
1790690955656435000,1.10643505859375,-0.08431044965982437,-0.7854636907577515,-0.8566712737083435
1790690955666473000,1.116472900390625,-0.016701428219676018,-0.7064854502677917,-0.7296120524406433
1790690955676511000,1.126510986328125,0.07159674167633057,-0.619192898273468,-0.5537872314453125
1790690955686549000,1.136549072265625,0.15524587035179138,-0.5327323079109192,-0.31254082918167114
1790690955696587000,1.1465869140625,0.2275991588830948,-0.4205322861671448,-0.03031286410987377
1790690955706625000,1.156625,0.29598432779312134,-0.26126423478126526,0.23892322182655334
1790690955716663000,1.1666630859375,0.3301982283592224,-0.10744217038154602,0.4123868942260742
1790690955726701000,1.176701171875,0.33795735239982605,-0.029309334233403206,0.4584439992904663
1790690955736738800,1.18673876953125,0.36645078659057617,-0.047481145709753036,0.40140441060066223
1790690955746777000,1.196777099609375,0.439432829618454,-0.14807236194610596,0.30564767122268677
1790690955756814800,1.20681494140625,0.5514107346534729,-0.3067762553691864,0.2208441197872162
1790690955766853000,1.21685302734375,0.7251700162887573,-0.5207444429397583,0.17740502953529358
1790690955776892000,1.226891845703125,1.052133321762085,-0.6674295663833618,0.18625681102275848
1790690955786930200,1.23693017578125,1.290855884552002,-0.7252023220062256,0.2666621208190918
1790690955796968000,1.246968017578125,1.36955726146698,-0.6323572993278503,0.34346023201942444
1790690955807006200,1.257006103515625,1.2962855100631714,-0.4285780191421509,0.35048869252204895
1790690955817044000,1.2670439453125,1.1704498529434204,-0.2697550654411316,0.31771528720855713
1790690955827082000,1.27708203125,1.0824624300003052,-0.35105574131011963,0.329164057970047
1790690955837120000,1.2871201171875,0.9854387044906616,-0.612309992313385,0.4134294092655182
1790690955847158000,1.297157958984375,0.8590497970581055,-0.8694565296173096,0.541609525680542
1790690955857196000,1.307196044921875,0.7402533888816833,-1.0069307088851929,0.6434932947158813
1790690955867234000,1.317234130859375,0.6656430959701538,-1.1271125078201294,0.7071133255958557
1790690955877272000,1.32727197265625,0.6848554015159607,-0.9978898763656616,0.6447122693061829
1790690955887310000,1.33731005859375,0.7722118496894836,-0.7887275815010071,0.545272171497345
1790690955897347800,1.347347900390625,0.8552505373954773,-0.5813744068145752,0.46886953711509705
1790690955907386000,1.35738623046875,0.915375828742981,-0.38530030846595764,0.44394412636756897
1790690955917423900,1.367423828125,0.9524081349372864,-0.2669459879398346,0.4919761121273041
1790690955927462100,1.377462158203125,0.9609344601631165,-0.26819878816604614,0.6081966757774353
1790690955937500000,1.3875,0.9280710220336914,-0.37902703881263733,0.7729920148849487
1790690955947538200,1.3975380859375,0.8855603933334351,-0.5302449464797974,0.9631057977676392
1790690955957576000,1.407575927734375,0.8489397764205933,-0.6323675513267517,1.1700555086135864
1790690955967615200,1.417615234375,0.8139683604240417,-0.6864461898803711,1.3834670782089233
1790690955977653000,1.427653076171875,0.758345901966095,-0.6782739758491516,1.5810084342956543
1790690955987691000,1.43769091796875,0.6634563207626343,-0.5811260342597961,1.7478667497634888
1790690955997729000,1.44772900390625,0.5726560950279236,-0.4071350395679474,1.8633339405059814
1790690956007767000,1.45776708984375,0.4818851351737976,-0.17319321632385254,1.9188008308410645
1790690956017805300,1.467805419921875,0.3701958954334259,0.10639102011919022,1.922062873840332
1790690956027843600,1.477843505859375,0.2539781630039215,0.41242164373397827,1.8986896276474
1790690956037881300,1.48788134765625,0.16375239193439484,0.6815109252929688,1.8789249658584595
1790690956047919600,1.497919677734375,0.11997668445110321,0.8889251947402954,1.8718537092208862
1790690956057957400,1.507957275390625,0.0923575684428215,1.0723158121109009,1.8593131303787231
1790690956067995400,1.517995361328125,0.08559633791446686,1.1160075664520264,1.8606773614883423
1790690956078033400,1.528033447265625,0.06421807408332825,1.114096760749817,1.8391954898834229
1790690956088071400,1.538071533203125,0.13508768379688263,1.0134586095809937,1.7375472784042358
1790690956098109400,1.548109375,0.2449241727590561,0.7608569264411926,1.5653928518295288
1790690956108147500,1.5581474609375,0.2998427748680115,0.5718439817428589,1.3048275709152222
1790690956118185500,1.568185546875,0.2832219898700714,0.5278589725494385,0.9680302143096924
1790690956128223500,1.578223388671875,0.18426671624183655,0.572300910949707,0.6300137042999268
1790690956138261200,1.58826123046875,0.038881029933691025,0.6269399523735046,0.2854880094528198
1790690956148299500,1.598299560546875,-0.14782555401325226,0.5907726287841797,-0.042972974479198456
1790690956158338300,1.60833837890625,-0.33728253841400146,0.45395323634147644,-0.34397274255752563
1790690956168376300,1.618376220703125,-0.49394139647483826,0.2915029227733612,-0.6160652041435242
1790690956178414300,1.628414306640625,-0.6664154529571533,0.1076851636171341,-0.8259183168411255
1790690956188452600,1.63845263671875,-0.8342349529266357,-0.03829585015773773,-0.9132891893386841
1790690956198490400,1.648490478515625,-0.9649344086647034,-0.09843029081821442,-0.8424403667449951
1790690956208528600,1.658528564453125,-1.0646950006484985,-0.08595423400402069,-0.6279647946357727
1790690956218566400,1.66856640625,-1.0989384651184082,-0.029727183282375336,-0.3207375407218933
1790690956228604400,1.6786044921875,-1.043324589729309,0.09021343290805817,-0.029179807752370834
1790690956238642400,1.688642333984375,-0.6824377179145813,1.156947374343872,-0.3449247181415558
1790690956248680400,1.698680419921875,-0.4883817136287689,1.3422894477844238,-0.1825508177280426
1790690956258718500,1.708718505859375,-0.04627887159585953,1.4350348711013794,-0.06914277374744415
1790690956268756500,1.718756591796875,0.4150756895542145,1.3482835292816162,0.1830521821975708
1790690956278794200,1.728794189453125,0.47998812794685364,1.4839528799057007,0.4348684251308441
1790690956288832500,1.73883251953125,-0.13055790960788727,2.0787017345428467,0.4123311936855316
1790690956298870300,1.748870361328125,-0.4350541830062866,2.3734591007232666,0.3971194922924042
1790690956308908500,1.758908447265625,-0.5479044914245605,2.8190298080444336,0.27297481894493103
1790690956318946300,1.7689462890625,-0.574533998966217,2.7123281955718994,0.15580157935619354
1790690956328984600,1.778984619140625,-0.507234513759613,2.0059168338775635,0.004821544513106346
1790690956339022300,1.789022216796875,-0.4558751881122589,1.3642284870147705,-0.29505279660224915
1790690956349061400,1.799061279296875,-0.7721406817436218,0.830522358417511,-0.533797562122345
1790690956359099400,1.809099365234375,-0.7368729710578918,0.109721839427948,-0.7833541035652161
1790690956369137400,1.819137451171875,-0.5696173906326294,-0.4577009975910187,-0.9288520812988281
1790690956379175400,1.829175537109375,-0.563888669013977,-0.6010014414787292,-0.9319093823432922
1790690956389213400,1.83921337890625,-0.6567909121513367,-0.6296043395996094,-0.9737420678138733
1790690956399251500,1.84925146484375,-0.6358312964439392,-0.6538990139961243,-0.9550549387931824
1790690956409289500,1.85928955078125,-0.6290267109870911,-0.8888060450553894,-0.9965277910232544
1790690956419327500,1.869327392578125,-0.47279292345046997,-1.1595337390899658,-1.0404402017593384
1790690956429365500,1.879365478515625,-0.29614436626434326,-1.1458141803741455,-1.017706036567688
1790690956439403300,1.8894033203125,-0.09122317284345627,-0.293896347284317,-0.5576766729354858
1790690956449441500,1.899441650390625,0.09108537435531616,0.15009012818336487,0.009719226509332657
1790690956459479300,1.909479248046875,0.247018501162529,-0.0021308264695107937,0.2923474609851837
1790690956469517600,1.919517578125,0.3350101113319397,-0.17271767556667328,0.3521827459335327
1790690956479555300,1.929555419921875,0.33341357111930847,-0.3548368811607361,0.3777429461479187
1790690956489593600,1.939593505859375,-0.03612492233514786,0.02391095831990242,0.3958902955055237
1790690956499631400,1.94963134765625,-0.25649937987327576,0.1667831689119339,0.2953445017337799
1790690956509669400,1.95966943359375,-0.28233030438423157,-0.2570692300796509,0.0819050669670105
1790690956519707400,1.969707275390625,-0.47729524970054626,-0.47293147444725037,0.08775363117456436
1790690956529745400,1.979745361328125,-0.7226641774177551,0.5815134644508362,0.14824427664279938
1790690956539784400,1.989784423828125,-0.8442199230194092,0.6001588106155396,0.23732700943946838
1790690956549822200,1.999822265625,-0.8706689476966858,0.618984580039978,0.15999026596546173
1790690956559860500,2.009860595703125,-0.8753755688667297,1.0858358144760132,0.13863970339298248
1790690956569898200,2.019898193359375,-0.8833961486816406,1.219091534614563,0.06341062486171722
1790690956579936500,2.0299365234375,-0.9046548008918762,1.0139857530593872,-0.13110984861850739
1790690956589974500,2.039974609375,-0.9233139157295227,0.751825749874115,-0.345137357711792
1790690956600012300,2.05001220703125,-0.9037761688232422,0.5348761677742004,-0.5025938153266907
1790690956610050600,2.060050537109375,-0.8673237562179565,0.47649717330932617,-0.6479102969169617
1790690956620088300,2.07008837890625,-0.8403289318084717,0.44860002398490906,-0.7444645166397095
1790690956630126600,2.080126708984375,-0.8178876042366028,0.29176002740859985,-0.8063960671424866
1790690956640164400,2.090164306640625,-0.855910062789917,-0.3838232159614563,-1.0490776300430298
1790690956650202600,2.10020263671875,-0.8331094980239868,-0.9109067320823669,-1.296730875968933
1790690956660240400,2.110240478515625,-0.7913638949394226,-1.4163392782211304,-1.5485503673553467
1790690956670278400,2.1202783203125,-0.8183215260505676,-0.4035012722015381,-1.3123151063919067
1790690956680316400,2.13031640625,-0.840258777141571,0.46020740270614624,-0.8856258988380432
1790690956690354400,2.1403544921875,-0.8903844952583313,0.18066146969795227,-0.8035129904747009
1790690956700392400,2.150392333984375,-0.8696070313453674,-0.34896454215049744,-0.9687538743019104
1790690956710430500,2.160430419921875,-0.7217418551445007,-0.9846137762069702,-1.070087194442749
1790690956720468200,2.17046826171875,-0.6272414326667786,-1.0958149433135986,-1.1742959022521973
1790690956730507300,2.18050732421875,-0.5836331248283386,-1.1735386848449707,-1.1796330213546753
1790690956740545500,2.190545654296875,-0.4881921112537384,-1.3422185182571411,-1.1461809873580933
1790690956750583300,2.200583251953125,-0.3285680413246155,0.09858152270317078,-0.3414108157157898
1790690956760621300,2.210621337890625,-0.19655701518058777,0.18543465435504913,0.3563466966152191
1790690956770659300,2.220659423828125,0.1487974375486374,-0.15804623067378998,0.18682914972305298
1790690956780697300,2.230697265625,0.18174047768115997,0.05713718757033348,0.42636770009994507
1790690956790735400,2.2407353515625,0.44916680455207825,-0.2866864502429962,0.38533633947372437
1790690956800773400,2.2507734375,0.5515698194503784,-0.4147735834121704,0.3361845016479492
1790690956810811400,2.260811279296875,0.5582855939865112,-0.1978832185268402,0.5131844282150269
1790690956820849400,2.270849365234375,0.656116247177124,-0.7508585453033447,0.16017742455005646
1790690956830887400,2.280887451171875,0.6319213509559631,0.17490659654140472,0.43021878600120544
1790690956840925400,2.290925537109375,0.6534173488616943,0.048774488270282745,0.3125683069229126
1790690956850963500,2.30096337890625,0.6741346120834351,-0.540998637676239,0.052158333361148834
1790690956861001500,2.31100146484375,0.6138747334480286,-0.46720460057258606,0.11716502904891968
1790690956871039500,2.32103955078125,0.542371392250061,-0.37014493346214294,0.2365531474351883
1790690956881077200,2.3310771484375,0.6467172503471375,-0.8228535652160645,0.010536255314946175
1790690956891115500,2.341115478515625,0.6408371925354004,-0.4064010679721832,0.2818528711795807
1790690956901153300,2.3511533203125,0.7064111232757568,-0.5905091166496277,0.28471285104751587
1790690956911192300,2.3611923828125,0.7617892622947693,-0.5623335242271423,0.23237894475460052
1790690956921230300,2.371230224609375,0.9023644924163818,-0.86848384141922,0.06020212918519974
1790690956931268400,2.381268310546875,0.9674103260040283,-0.7428295612335205,0.12577395141124725
1790690956941306400,2.391306396484375,0.9774855971336365,-0.4381117522716522,0.34480321407318115
1790690956951344400,2.401344482421875,1.0421346426010132,-0.3690991699695587,0.31787997484207153
1790690956961382400,2.41138232421875,1.068325400352478,-0.4050007164478302,0.24469231069087982
1790690956971420400,2.42142041015625,1.1149886846542358,-0.5781804919242859,0.10788863152265549
1790690956981458400,2.43145849609375,1.096819519996643,-0.358688622713089,0.06136666610836983
1790690956991496400,2.441496337890625,0.88453608751297,0.2659631073474884,0.39759936928749084
1790690957001534500,2.451534423828125,0.925336480140686,0.13756439089775085,0.3492075800895691
1790690957011572500,2.461572509765625,0.9441112875938416,-0.27623453736305237,0.07767178118228912
1790690957021609700,2.471609619140625,0.9265914559364319,-0.596775233745575,-0.10628953576087952
1790690957031648000,2.48164794921875,0.648193359375,-0.24514789879322052,0.24952490627765656
1790690957041685800,2.491685791015625,0.5606712102890015,-0.4640709161758423,0.20067241787910461
1790690957051724000,2.50172412109375,0.444547176361084,-0.7011138796806335,-0.10102777928113937
1790690957061761800,2.51176171875,0.3200925886631012,-0.34890657663345337,0.028205038979649544
1790690957071800000,2.521800048828125,0.3488561809062958,-0.4392806589603424,-0.04112514108419418
1790690957081837800,2.531837890625,0.2592277526855469,-0.36097651720046997,-0.1253763735294342
1790690957091876900,2.541876953125,0.07044781744480133,0.06697985529899597,-0.026524536311626434
1790690957101915000,2.551914794921875,-0.10070342570543289,0.33251193165779114,-0.08797697722911835
1790690957111953000,2.561952880859375,-0.2657438814640045,0.6944770812988281,-0.06345708668231964
1790690957121991000,2.571990966796875,-0.4281146824359894,0.964971125125885,0.010482924059033394
1790690957132029000,2.58202880859375,-0.5759810209274292,1.0000489950180054,-0.053439315408468246
1790690957142067000,2.59206689453125,-0.6799465417861938,0.8444585800170898,-0.19730140268802643
1790690957152105000,2.60210498046875,-0.7304523587226868,0.9906446933746338,-0.09039877355098724
1790690957162143000,2.61214306640625,-0.764273464679718,0.7134961485862732,-0.12947134673595428
1790690957172181000,2.622180908203125,-0.7970362901687622,0.39965054392814636,-0.2562309503555298
1790690957182218800,2.63221875,-0.8331295251846313,0.3197445273399353,-0.15386275947093964
1790690957192257000,2.642257080078125,-0.7705259323120117,0.9312748908996582,0.21436677873134613
1790690957202294800,2.652294677734375,-0.7644028067588806,0.6945515275001526,-0.02298399992287159
1790690957212333000,2.6623330078125,-0.7500002384185791,0.48060640692710876,-0.33471009135246277
1790690957222370800,2.672370849609375,-0.7530732750892639,0.8114168047904968,-0.1385672241449356
1790690957232409000,2.6824091796875,-0.7315472364425659,0.926062285900116,-0.13262736797332764
1790690957242446800,2.69244677734375,-0.6794496774673462,0.8956884145736694,-0.1921122670173645
1790690957252484900,2.70248486328125,-0.35261058807373047,0.2811063528060913,0.07141609489917755
1790690957262523000,2.71252294921875,-0.11472397297620773,-0.2747233510017395,0.011449700221419334
1790690957272561700,2.722561767578125,0.03556950390338898,-0.10314488410949707,-0.043860625475645065
1790690957282600000,2.732599853515625,0.050602249801158905,-0.04111161082983017,0.026442833244800568
1790690957292638000,2.742637939453125,0.03629399463534355,-0.16848815977573395,-0.03342628851532936
1790690957302676000,2.752676025390625,-0.02658536471426487,-0.1576927751302719,0.01681583933532238
1790690957312714000,2.7627138671875,-0.13763603568077087,-0.19245532155036926,0.05615653842687607
1790690957322752000,2.772751953125,-0.22825035452842712,-0.21780967712402344,0.06657668948173523
1790690957332790000,2.7827900390625,-0.296122282743454,-0.27888157963752747,0.05442843213677406
1790690957342827800,2.792827880859375,-0.35329368710517883,-0.2619856894016266,0.048904504626989365
1790690957352866000,2.802865966796875,-0.40475788712501526,-0.12246137857437134,0.08829981833696365
1790690957362903800,2.81290380859375,-0.44659852981567383,-0.039360638707876205,0.09986299276351929
1790690957372942000,2.822942138671875,-0.4807080030441284,-0.10586679726839066,0.07605472952127457
1790690957382979800,2.832979736328125,-0.52601158618927,-0.228145569562912,0.03280872106552124
1790690957393018000,2.84301806640625,-0.5515663027763367,-0.2926398813724518,0.0029360265471041203
1790690957403055900,2.853055908203125,-0.5522571206092834,-0.2345438152551651,-0.016825959086418152
1790690957413094000,2.863093994140625,-0.5167227387428284,-0.07004344463348389,-0.018262047320604324
1790690957423132000,2.8731318359375,-0.4615013301372528,0.0801180899143219,-0.03628605604171753
1790690957433170000,2.883169921875,-0.39469411969184875,0.16004589200019836,-0.08992163836956024
1790690957443208000,2.8932080078125,-0.3179229199886322,0.2603679597377777,-0.1674955189228058
1790690957453246700,2.903246826171875,-0.2314201146364212,0.38490399718284607,-0.22969220578670502
1790690957463285000,2.913284912109375,-0.14917531609535217,0.5373382568359375,-0.2632533311843872
1790690957473322800,2.92332275390625,-0.08880027383565903,0.7400935292243958,-0.2728094756603241
1790690957483361000,2.933361083984375,-0.0361517071723938,0.9259499311447144,-0.2622239589691162
1790690957493398800,2.943398681640625,0.061312418431043625,0.2932148575782776,-0.18812839686870575
1790690957503436800,2.953436767578125,0.09950214624404907,-0.2933996319770813,-0.15485353767871857
1790690957513474800,2.963474853515625,0.09511356055736542,-0.2702785134315491,-0.09136053174734116
1790690957523512800,2.973512939453125,0.09495802968740463,-0.0013828941155225039,-0.09728366881608963
1790690957533551000,2.983551025390625,0.06537115573883057,0.17360815405845642,-0.1696843057870865
1790690957543588900,2.9935888671875,0.011711916886270046,0.03158682584762573,-0.2116978019475937
1790690957553627100,3.003627197265625,-0.06296651065349579,-0.04973572492599487,-0.15645797550678253
1790690957563665000,3.013664794921875,-0.1367776244878769,0.07434894144535065,-0.026081591844558716
1790690957573703000,3.023702880859375,-0.21659377217292786,0.23999974131584167,0.049419891089200974
1790690957583741000,3.033740966796875,-0.3070104718208313,0.3967216908931732,0.01426536776125431
1790690957593779000,3.043779052734375,-0.3970836102962494,0.5509436726570129,-0.023421959951519966
1790690957603817000,3.05381689453125,-0.3841116428375244,0.2926444709300995,-0.0013025428634136915
1790690957613855000,3.06385498046875,-0.34179550409317017,0.03206193819642067,0.02895548939704895
1790690957623894000,3.07389404296875,-0.2575749158859253,0.11052878201007843,0.08003012090921402
1790690957633931800,3.083931884765625,-0.16257181763648987,0.2454092651605606,0.08544428646564484
1790690957643970000,3.093969970703125,-0.10014358907938004,0.3246433734893799,0.035672470927238464
1790690957654007800,3.1040078125,-0.05036142095923424,0.2890787720680237,-0.0681162104010582
1790690957664045800,3.1140458984375,0.00911042746156454,0.08006642758846283,-0.15397332608699799
1790690957674083800,3.124083740234375,0.0587974414229393,-0.0649559497833252,-0.12275520712137222
1790690957684121900,3.134121826171875,0.03875529021024704,0.0545659177005291,-0.012419648468494415
1790690957694160000,3.144159912109375,-0.023925209417939186,0.008532853797078133,-0.06948612630367279
1790690957704198000,3.154197998046875,-0.11020684242248535,0.08915553241968155,-0.10838985443115234
1790690957714236000,3.16423583984375,-0.2086470127105713,0.2815593481063843,-0.04268810153007507
1790690957724274000,3.17427392578125,-0.2971377372741699,0.25690725445747375,-0.07195331156253815
1790690957734312000,3.18431201171875,-0.3877732455730438,0.16628344357013702,-0.1100536584854126
1790690957744350000,3.194349853515625,-0.4901733696460724,0.13698254525661469,-0.11947085708379745
1790690957754388000,3.204387939453125,-0.5942972898483276,0.13151784241199493,-0.1506972312927246
1790690957764426000,3.214426025390625,-0.6321775317192078,-0.12204677611589432,-0.16024227440357208
1790690957774464000,3.224464111328125,-0.6165905594825745,0.28933969140052795,0.13765613734722137
1790690957784501800,3.234501708984375,-0.6526018381118774,0.19570961594581604,0.06323941797018051
1790690957794540000,3.2445400390625,-0.6422053575515747,-0.08247976750135422,-0.15982209146022797
1790690957804579000,3.2545791015625,-0.5633313059806824,0.1056203693151474,-0.023799287155270576
1790690957814616800,3.264616943359375,-0.43946945667266846,0.11651583760976791,0.010410336777567863
1790690957824654800,3.27465478515625,-0.29194125533103943,0.08733078837394714,-0.03094535693526268
1790690957834692900,3.28469287109375,-0.16218844056129456,0.2054419219493866,0.07553334534168243
1790690957844731000,3.29473095703125,-0.08804495632648468,0.08016149699687958,0.004765166435390711
1790690957854769000,3.304768798828125,-0.03631259873509407,0.07829707860946655,-0.03692786768078804
1790690957864807000,3.314806884765625,-0.02145402505993843,0.005781062878668308,-0.040860291570425034
1790690957874844700,3.3248447265625,-0.05464652180671692,-0.03369912877678871,-0.0818164125084877
1790690957884883000,3.334883056640625,-0.12380748242139816,-0.03350578248500824,-0.09522382915019989
1790690957894920700,3.344920654296875,-0.2080165296792984,-0.018242888152599335,-0.10033543407917023
1790690957904959000,3.354958984375,-0.27705177664756775,0.025495272129774094,-0.0760577917098999
1790690957914996700,3.364996826171875,-0.3369962275028229,0.09500105679035187,-0.03773678094148636
1790690957925035000,3.375034912109375,-0.39431729912757874,0.08536999672651291,-0.032969456166028976
1790690957935073000,3.385072998046875,-0.449332594871521,0.08191737532615662,-0.028433162719011307
1790690957945110800,3.39511083984375,-0.4827933609485626,-0.019955994561314583,-0.08118079602718353
1790690957955149000,3.405149169921875,-0.4702218770980835,-0.10204644501209259,-0.09103542566299438
1790690957965186800,3.415186767578125,-0.45883020758628845,-0.19112944602966309,-0.08846814185380936
1790690957975225900,3.425225830078125,-0.40801802277565,-0.121385358273983,-0.07508693635463715
1790690957985263900,3.435263916015625,-0.33322766423225403,-0.05499434843659401,-0.05788344889879227
1790690957995302000,3.445302001953125,-0.24002453684806824,-0.015616271644830704,-0.053930625319480896
1790690958005340000,3.45533984375,-0.131891667842865,0.02297106757760048,-0.023706411942839622
1790690958015378000,3.4653779296875,-0.03242514654994011,0.0051159667782485485,-0.0076388223096728325
1790690958025417000,3.4754169921875,0.023504434153437614,-0.04608197510242462,-0.011034086346626282
1790690958035454700,3.485454833984375,0.025096431374549866,-0.014527296647429466,-0.008473239839076996
1790690958045492700,3.49549267578125,0.022215958684682846,-0.006551395636051893,-0.0031253460329025984
1790690958055530800,3.50553076171875,0.02184908837080002,-0.0012487233616411686,-0.006558891385793686
1790690958065568800,3.51556884765625,0.00972691085189581,0.016426943242549896,-0.02494056336581707
1790690958075606800,3.525606689453125,0.009901158511638641,0.04289029911160469,-0.0182067658752203
1790690958085644800,3.535644775390625,0.014579000882804394,-0.006535307038575411,-0.01340189017355442
1790690958095682600,3.5456826171875,0.020603831857442856,-0.039682768285274506,0.0063181547448039055
1790690958105720800,3.555720947265625,0.043536581099033356,-0.1993131786584854,0.040226321667432785
1790690958115758600,3.565758544921875,0.0968020111322403,-0.33747580647468567,0.06743170320987701
1790690958125796900,3.575796875,0.19914115965366364,-0.29016420245170593,0.0788649171590805
1790690958135834600,3.585834716796875,0.28632551431655884,-0.22552475333213806,0.09037800878286362
1790690958145873700,3.595873779296875,0.342721164226532,-0.18477758765220642,0.11841736733913422
1790690958155911700,3.60591162109375,0.42136380076408386,-0.31791338324546814,0.11139900237321854
1790690958165949700,3.61594970703125,0.4774864614009857,-0.5550175309181213,0.0975114107131958
1790690958175987700,3.62598779296875,0.48864537477493286,-0.7597466111183167,0.16581279039382935
1790690958186025700,3.636025634765625,0.5022940635681152,-0.9643085598945618,0.14712750911712646
1790690958196063700,3.646063720703125,0.5130979418754578,-1.026383399963379,0.18149258196353912
1790690958206101800,3.656101806640625,0.5028895139694214,-1.0645058155059814,0.23637686669826508
1790690958216139800,3.666139892578125,0.47668787837028503,-1.1920397281646729,0.24398884177207947
1790690958226177800,3.676177734375,0.42105042934417725,-1.2224080562591553,0.19149181246757507
1790690958236215800,3.6862158203125,0.3467971086502075,-1.1004170179367065,0.12419682741165161
1790690958246253800,3.69625390625,0.21391519904136658,-1.060393214225769,0.054055824875831604
1790690958256291600,3.70629150390625,0.07634630799293518,-1.0405571460723877,-0.11936947703361511
1790690958266329900,3.716329833984375,-0.024891899898648262,-1.0693951845169067,-0.27786269783973694
1790690958276367600,3.72636767578125,-0.05677465349435806,-1.1352864503860474,-0.3943924307823181
1790690958286406000,3.736406005859375,-0.024977577850222588,-1.089807391166687,-0.40161094069480896
1790690958296443600,3.746443603515625,0.08662743121385574,-0.4201909005641937,-0.057219475507736206
1790690958306482000,3.75648193359375,0.14085844159126282,-0.772575318813324,0.11439116299152374
1790690958316520700,3.766520751953125,0.19999386370182037,-0.6184225082397461,0.14605878293514252
1790690958326558700,3.776558837890625,0.22994883358478546,0.13224829733371735,0.3597774803638458
1790690958336596700,3.7865966796875,0.23974554240703583,0.21070343255996704,0.6058164834976196
1790690958346634800,3.796634765625,0.3315984904766083,0.5265886783599854,0.6417129635810852
1790690958356672800,3.8066728515625,0.32240086793899536,0.8428715467453003,0.7492948770523071
1790690958366710800,3.816710693359375,0.24206100404262543,0.6982019543647766,0.8874969482421875
1790690958376748800,3.826748779296875,0.09674523770809174,0.564201831817627,0.3493165969848633
1790690958386786800,3.836786865234375,0.0022528241388499737,0.5039272904396057,0.24266818165779114
1790690958396824800,3.846824951171875,-0.026250455528497696,0.4965849220752716,0.12820951640605927
1790690958406862800,3.85686279296875,-0.01640821248292923,0.45391812920570374,0.02978254109621048
1790690958416900600,3.866900634765625,-0.12730205059051514,0.10897674411535263,-0.042085275053977966
1790690958426939000,3.87693896484375,-0.9302970767021179,-1.1539298295974731,-0.43380990624427795
1790690958436976600,3.8869765625,-0.6317196488380432,-0.7807040810585022,-0.5344587564468384
1790690958447015000,3.897014892578125,-0.273528516292572,-0.4887329339981079,-0.6926729083061218
1790690958457052700,3.907052734375,0.019133612513542175,-1.0590521097183228,-0.7307616472244263
1790690958467091000,3.917091064453125,-0.003599663730710745,-1.2986152172088623,-0.531600832939148
1790690958477128700,3.927128662109375,-0.05926802381873131,-1.0919350385665894,-0.33469173312187195
1790690958487167700,3.937167724609375,-0.028262168169021606,-0.8416175842285156,-0.18861840665340424
1790690958497205800,3.947205810546875,-0.03942263871431351,0.31759750843048096,-0.002200882649049163
1790690958507243500,3.957243408203125,-0.03956298902630806,0.11845109611749649,-0.0004019171465188265
1790690958517281800,3.96728173828125,0.0039397478103637695,0.12186266481876373,0.0733962431550026
1790690958527319600,3.977319580078125,0.04923239350318909,0.023305993527173996,0.06724061071872711
1790690958537357800,3.98735791015625,0.10391831398010254,-0.05480510741472244,0.08158170431852341
1790690958547395600,3.9973955078125,0.1592755764722824,0.10904401540756226,0.1803695410490036
1790690958557433900,4.007433837890625,0.10736014693975449,0.36834925413131714,0.2556782364845276
1790690958567471600,4.0174716796875,0.05521145835518837,0.47407352924346924,0.29255369305610657
1790690958577509600,4.027509521484375,0.018450399860739708,0.3613858222961426,0.26908454298973083
1790690958587548000,4.0375478515625,0.03530874475836754,0.2098327875137329,0.26672470569610596
1790690958597585700,4.047585693359375,0.0773661807179451,0.07001923024654388,0.3211993873119354
1790690958607624000,4.0576240234375,0.13787056505680084,-0.0495038703083992,0.3351971209049225
1790690958617661700,4.06766162109375,0.17495809495449066,-0.1497882902622223,0.36762866377830505
1790690958627700000,4.077699951171875,0.2152290791273117,-0.07730050384998322,0.3558335304260254
1790690958637737700,4.08773779296875,0.2648416757583618,-0.031107235699892044,0.38799622654914856
1790690958647776800,4.09777685546875,0.3361552953720093,0.15120796859264374,0.3567933142185211
1790690958657814800,4.107814697265625,0.4860353171825409,-0.1400848925113678,0.4446772336959839
1790690958667852500,4.1178525390625,0.6860632300376892,-0.4042038917541504,0.3945738673210144
1790690958677890800,4.127890869140625,0.7872048020362854,-0.41464680433273315,0.4105983078479767
1790690958687928600,4.137928466796875,0.6334967613220215,0.2804741859436035,0.2601744532585144
1790690958697966800,4.147966796875,0.5019638538360596,0.2696283757686615,0.3333565890789032
1790690958708004600,4.158004638671875,0.3924988806247711,0.10661787539720535,0.3340655267238617
1790690958718043000,4.16804296875,0.21704143285751343,0.33847764134407043,0.25566840171813965
1790690958728080600,4.17808056640625,0.05943557620048523,0.5306697487831116,0.19224603474140167
1790690958738118700,4.18811865234375,0.003787565277889371,0.5690569281578064,0.15544560551643372
1790690958748156700,4.19815673828125,-0.030186645686626434,0.6093388795852661,0.14410586655139923
1790690958758194700,4.208194580078125,-0.0870952382683754,0.5457083582878113,0.15642257034778595
1790690958768232700,4.218232666015625,-0.12549643218517303,0.44708752632141113,0.10569387674331665
1790690958778270700,4.228270751953125,-0.16820773482322693,0.2722336947917938,0.06443589925765991
1790690958788308700,4.238308837890625,-0.21122924983501434,0.08140141516923904,0.03236904740333557
1790690958798346800,4.2483466796875,-0.253674179315567,-0.019284870475530624,-0.004502336494624615
1790690958808384800,4.258384765625,-0.30303826928138733,-0.017362868413329124,-0.017667407169938087
1790690958818423800,4.268423828125,-0.2878132462501526,-0.013201255351305008,0.02256195619702339
1790690958828461600,4.278461669921875,-0.11732858419418335,0.10645483434200287,0.06262628734111786
1790690958838499800,4.288499755859375,-0.09984520077705383,0.03909135237336159,0.07536080479621887
1790690958848537600,4.29853759765625,-0.09976983070373535,-0.21249240636825562,0.04604392871260643
1790690958858576000,4.308575927734375,-0.12324749678373337,-0.2614458501338959,-0.0707971528172493
1790690958868613600,4.318613525390625,-0.23153136670589447,-0.3218540847301483,-0.1500815749168396
1790690958878651600,4.328651611328125,-0.27547401189804077,-0.4028332233428955,-0.23142275214195251
1790690958888689700,4.338689697265625,-0.3347432017326355,-0.5047500133514404,-0.25565460324287415
1790690958898727700,4.348727783203125,-0.4269188642501831,-0.6320085525512695,-0.19375544786453247
1790690958908765700,4.358765625,-0.4845171868801117,-0.6541873216629028,-0.2716752588748932
1790690958918803700,4.3688037109375,-0.5394693613052368,-0.6788172125816345,-0.4844859838485718
1790690958928841700,4.378841796875,-0.5556361079216003,-1.0883123874664307,-0.6408851742744446
1790690958938879700,4.388879638671875,-0.4272311329841614,-1.15043306350708,-0.9199790954589844
1790690958948917500,4.39891748046875,-0.5054535269737244,-1.4336721897125244,-0.8728501796722412
1790690958958955800,4.408955810546875,-0.4481971263885498,-1.5805654525756836,-0.8547524213790894
1790690958968993500,4.41899365234375,-0.4411424398422241,-1.5459047555923462,-0.7882671356201172
1790690958979032800,4.42903271484375,-0.374824196100235,-1.5525233745574951,-0.6358508467674255
1790690958989070600,4.439070556640625,-0.37420687079429626,-0.37736567854881287,-0.1794169843196869
1790690958999108900,4.44910888671875,-0.11100327223539352,0.4194273352622986,-0.054448436945676804
1790690959009146600,4.459146728515625,0.019342215731739998,-0.048277806490659714,0.012274401262402534
1790690959019184000,4.46918408203125,0.023658286780118942,-0.030462000519037247,0.2215581238269806
1790690959029222000,4.479221923828125,0.24809911847114563,0.05949532240629196,0.39907723665237427
1790690959039260200,4.48926025390625,0.3535630702972412,0.2451947182416916,0.6815016269683838
1790690959049298200,4.499298095703125,0.369346022605896,1.5569813251495361,0.49389418959617615
1790690959059336200,4.509336181640625,0.46705448627471924,1.8001357316970825,0.8014651536941528
1790690959069374200,4.519374267578125,0.5774933695793152,1.9116078615188599,1.035322666168213
1790690959079412200,4.529412109375,0.5753852128982544,2.2333242893218994,1.2721209526062012
1790690959089450200,4.5394501953125,0.599249005317688,3.0902833938598633,1.3455790281295776
1790690959099488000,4.549488037109375,0.7087883949279785,3.9546682834625244,1.5132710933685303
1790690959109526300,4.5595263671875,0.9237515330314636,4.401698589324951,1.871632695198059
1790690959119564000,4.56956396484375,1.0966408252716064,5.6270432472229,1.897876501083374
1790690959129602300,4.579602294921875,1.4290573596954346,5.7854695320129395,2.5118000507354736
1790690959139641000,4.58964111328125,1.3438912630081177,2.9395134449005127,0.026011623442173004
1790690959149679000,4.59967919921875,0.9348573684692383,-2.060074806213379,-0.3533817529678345
1790690959159717000,4.609717041015625,1.0048173666000366,0.6278285980224609,0.25915566086769104
1790690959169755100,4.619755126953125,1.3087093830108643,0.601443350315094,0.280748575925827
1790690959179793200,4.629793212890625,1.4101237058639526,-1.0918972492218018,-0.4043043553829193
1790690959189831000,4.639830810546875,1.2565250396728516,-0.477408230304718,0.21218708157539368
1790690959199869200,4.649869140625,0.705927312374115,0.5474957823753357,-0.05919529125094414
1790690959209907000,4.659906982421875,0.220794215798378,-0.3021862506866455,-0.02562960796058178
1790690959219945200,4.6699453125,0.2394484579563141,-1.0407527685165405,-0.7312904596328735
1790690959229983000,4.67998291015625,0.34570005536079407,-1.986706018447876,-0.9480440616607666
1790690959240021200,4.690021240234375,0.2640634775161743,-2.726877212524414,-1.1059441566467285
1790690959250059000,4.70005908203125,0.1097537949681282,-3.078510046005249,-1.3557294607162476
1790690959260097000,4.710096923828125,0.13353495299816132,-3.293280839920044,-1.4311037063598633
1790690959270135000,4.720135009765625,-0.00015600328333675861,0.3380572497844696,-0.49265050888061523
1790690959280173000,4.730173095703125,0.06968802213668823,0.6624881625175476,-0.04855697602033615
1790690959290211300,4.74021142578125,0.08225467801094055,0.5838890075683594,0.11771748960018158
1790690959300250000,4.75025,0.06727016717195511,0.5987874865531921,0.16305431723594666
1790690959310288100,4.7602880859375,0.11596846580505371,0.6399527788162231,0.21048948168754578
1790690959320326100,4.770326171875,-0.08806344866752625,0.7124536633491516,0.19293847680091858
1790690959330364200,4.7803642578125,-0.17187181115150452,0.3262085020542145,0.13606692850589752
1790690959340402200,4.790402099609375,-0.24362191557884216,0.24850773811340332,0.055428653955459595
1790690959350440000,4.80043994140625,-0.17300526797771454,0.041924744844436646,-0.17678913474082947
1790690959360478200,4.810478271484375,-0.15141944587230682,0.06580514460802078,-0.33395540714263916
1790690959370516000,4.820515869140625,-0.3343794047832489,0.24043022096157074,-0.40133604407310486
1790690959380554200,4.83055419921875,-0.4684925973415375,0.015019839629530907,-0.49952036142349243
1790690959390592000,4.840592041015625,-0.6446980237960815,0.36972251534461975,-0.6012600660324097
1790690959400630000,4.850630126953125,-0.6462261080741882,0.17337960004806519,-0.7834120392799377
1790690959410668000,4.86066796875,-0.4407821297645569,-0.10553885251283646,-0.8468786478042603
1790690959420706000,4.8707060546875,-0.2740980386734009,0.14731940627098083,-0.8065246939659119
1790690959430744000,4.880744140625,-0.052627429366111755,0.37267395853996277,-0.33956947922706604
1790690959440782000,4.890781982421875,0.05294952169060707,0.44150394201278687,0.5246474146842957
1790690959450820000,4.900820068359375,0.07814701646566391,-0.055060550570487976,0.2302035242319107
1790690959460859100,4.910859130859375,0.13740943372249603,-0.044085294008255005,-0.009355148300528526
1790690959470897200,4.920897216796875,0.10423097014427185,-0.00133782927878201,-0.06912793219089508
1790690959480935200,4.93093505859375,0.013686918653547764,0.012544643133878708,0.0566837415099144
1790690959490973000,4.940972900390625,0.0034358783159404993,-0.09083927422761917,0.08296487480401993
1790690959501011200,4.95101123046875,-0.008893036283552647,-0.08079148828983307,0.02258782647550106
1790690959511049000,4.961049072265625,-0.03868768364191055,-0.03921794518828392,-0.0022693201899528503
1790690959521087200,4.971087158203125,-0.025555027648806572,-0.001340437913313508,0.06456278264522552
1790690959531125000,4.981125,-0.024366725236177444,0.0585511215031147,0.09768185764551163
1790690959541163300,4.991163330078125,-0.0024548436049371958,-0.0005675374995917082,0.06959784030914307
1790690959551201000,5.001200927734375,0.01626638136804104,-0.03290204331278801,0.07697746157646179
1790690959561239000,5.011239013671875,0.06559965014457703,-0.000839821994304657,0.1207166239619255
1790690959571277000,5.021277099609375,0.13000287115573883,-0.04568932205438614,0.1267279088497162
1790690959581315000,5.031315185546875,0.07957698404788971,0.06767282634973526,-0.33214348554611206
1790690959591353000,5.04135302734375,-0.05376988649368286,0.4300305247306824,-0.1583929806947708
1790690959601391000,5.05139111328125,-0.17522552609443665,0.38559603691101074,-0.01809086836874485
1790690959611429000,5.06142919921875,-0.28218045830726624,0.2046576887369156,0.0799345001578331
1790690959621467100,5.071467041015625,-0.3991706073284149,0.06410051137208939,0.0827004462480545
1790690959631506200,5.081506103515625,-0.33751365542411804,0.2326194792985916,-0.18932759761810303
1790690959641544200,5.091544189453125,-0.2586316764354706,0.305673211812973,-0.5278146266937256
1790690959651582000,5.10158203125,-0.25312718749046326,1.7518434524536133,-0.4192918539047241
1790690959661620200,5.1116201171875,-0.23177355527877808,2.694016218185425,-0.37565070390701294
1790690959671658000,5.121657958984375,-0.24032603204250336,2.3893940448760986,-0.7815910577774048
1790690959681696300,5.1316962890625,-0.06050608679652214,-0.10643111914396286,-0.18014219403266907
1790690959691734000,5.141734130859375,-0.02998599410057068,-0.1503913849592209,0.24872075021266937
1790690959701772300,5.151772216796875,-0.05696670711040497,-0.13137097656726837,0.30322369933128357
1790690959711810000,5.16181005859375,-0.1715148687362671,-0.07262803614139557,0.030958879739046097
1790690959721848000,5.17184814453125,-0.12107767164707184,-0.12679578363895416,-0.16180922091007233
1790690959731886000,5.181885986328125,0.004905828274786472,-0.20747731626033783,-0.10056211799383163
1790690959741924000,5.191924072265625,0.1421322077512741,0.10344748944044113,0.15120293200016022
1790690959751962000,5.201962158203125,0.19377197325229645,-0.10260287672281265,0.08637572079896927
1790690959762000100,5.212000244140625,0.22521981596946716,-0.10476206243038177,0.05813403055071831
1790690959772038100,5.2220380859375,0.24849505722522736,0.04371076449751854,0.1506517082452774
1790690959782077200,5.2320771484375,0.3124353587627411,0.026258111000061035,0.1838899701833725
1790690959792115200,5.242115234375,0.4224044680595398,0.11239619553089142,0.19815225899219513
1790690959802153200,5.2521533203125,0.5630061030387878,0.2707984447479248,0.1839188188314438
1790690959812191000,5.26219091796875,0.6944333910942078,-0.07791905105113983,0.039088666439056396
1790690959822229200,5.272229248046875,0.7671616077423096,0.07091900706291199,0.15286970138549805
1790690959832267000,5.28226708984375,0.7246536016464233,-0.11116504669189453,0.2129223793745041
1790690959842305300,5.29230517578125,0.6407103538513184,-0.04162650927901268,0.2552359998226166
1790690959852343000,5.302343017578125,0.6126888394355774,-0.0579460933804512,0.19765207171440125
1790690959862381300,5.31238134765625,0.6476548314094543,0.0063482108525931835,0.05511404201388359
1790690959872419000,5.322419189453125,0.6914822459220886,0.06304770708084106,-0.10297200083732605
1790690959882457000,5.33245703125,0.6361051797866821,0.1553274691104889,-0.12661410868167877
1790690959892495000,5.3424951171875,0.47309044003486633,0.05673990771174431,0.01311477180570364
1790690959902533000,5.352533203125,0.2851943373680115,-0.05680923908948898,0.11810387670993805
1790690959912571100,5.362571044921875,0.18051958084106445,-0.02489311806857586,-0.006378930062055588
1790690959922609200,5.372609130859375,0.07676243782043457,0.006482278928160667,-0.1074170395731926
1790690959932647200,5.382647216796875,-0.005492750555276871,0.06350721418857574,-0.21328780055046082
1790690959942686200,5.392686279296875,-0.03968294709920883,0.16354674100875854,-0.19693945348262787
1790690959952724200,5.40272412109375,-0.035933785140514374,0.1306980699300766,-0.13456329703330994
1790690959962762200,5.41276220703125,-0.016548143699765205,0.13120785355567932,-0.07546599954366684
1790690959972800000,5.422800048828125,0.007238146848976612,0.1703059822320938,-0.10150053352117538
1790690959982838300,5.43283837890625,0.03030024841427803,0.18000687658786774,-0.12962915003299713
1790690959992876000,5.4428759765625,0.07763686776161194,0.04521603882312775,-0.054773811250925064
1790690960002914300,5.452914306640625,0.06988376379013062,0.14971527457237244,-0.006193988956511021
1790690960012952000,5.4629521484375,0.050864532589912415,0.15379737317562103,-0.02697410248219967
1790690960022989600,5.472989501953125,0.041395775973796844,0.11148666590452194,-0.06756711006164551
1790690960033027300,5.48302734375,0.037735261023044586,0.09330899268388748,-0.10147181153297424
1790690960043065600,5.493065673828125,0.04419377073645592,0.19640496373176575,-0.13474196195602417
1790690960053103400,5.503103271484375,0.06080283969640732,0.12511266767978668,-0.09650377184152603
1790690960063141600,5.5131416015625,0.07421325892210007,0.12337762862443924,-0.006368797272443771
1790690960073179400,5.523179443359375,0.05924203619360924,0.06331881880760193,0.04873653128743172
1790690960083217700,5.5332177734375,0.03820332884788513,0.11652978509664536,0.015650775283575058
1790690960093256400,5.54325634765625,0.049179282039403915,0.0826575756072998,-0.03324486315250397
1790690960103294700,5.553294677734375,0.042992040514945984,0.03948209062218666,-0.04651334881782532
1790690960113332500,5.56333251953125,0.02166038379073143,-0.09255637228488922,-0.060939960181713104
1790690960123370500,5.57337060546875,-0.02849903702735901,0.10061847418546677,-0.1021164134144783
1790690960133408500,5.583408447265625,-0.021560968831181526,0.024613449349999428,-0.10991654545068741
1790690960143446500,5.593446533203125,0.00000819982960820198,0.029431212693452835,-0.06762807071208954
1790690960153484500,5.603484619140625,0.018138200044631958,0.03962020203471184,-0.04044438898563385
1790690960163522600,5.6135224609375,0.023547690361738205,0.0790843591094017,-0.03816542401909828
1790690960173560600,5.623560546875,0.020364146679639816,0.10150924324989319,-0.024165453389286995
1790690960183598600,5.6335986328125,0.014456873759627342,0.11280147731304169,-0.010583236813545227
1790690960193636400,5.64363623046875,0.03627854958176613,0.08589182794094086,0.006298007909208536
1790690960203674600,5.653674560546875,0.0016192598268389702,0.33039960265159607,0.119583860039711
1790690960213712400,5.66371240234375,-0.00003696000203490257,0.06420411169528961,0.08649887889623642
1790690960223750700,5.673750732421875,-0.0064531234093010426,0.030720502138137817,-0.07154792547225952
1790690960233788400,5.683788330078125,-0.0014612942468374968,0.030485346913337708,-0.1152794286608696
1790690960243826700,5.69382666015625,0.024423183873295784,0.01577276736497879,-0.058260075747966766
1790690960253865500,5.703865478515625,0.06654773652553558,-0.04969146102666855,0.017316706478595734
1790690960263903700,5.71390380859375,0.13390801846981049,-0.056078147143125534,0.06932596117258072
1790690960273941500,5.72394140625,0.1712798923254013,-0.07556449621915817,0.06541244685649872
1790690960283979500,5.7339794921875,0.010182121768593788,-0.04371489956974983,-0.0594298355281353
1790690960294017500,5.744017578125,-0.07794240862131119,0.15366661548614502,-0.1647309511899948
1790690960304055600,5.7540556640625,-0.15109990537166595,0.08043154329061508,-0.14426028728485107
1790690960314093600,5.764093505859375,-0.2883695960044861,0.11405208706855774,-0.11038035154342651
1790690960324131600,5.774131591796875,-0.4517435133457184,0.1754167079925537,-0.16286826133728027
1790690960334169600,5.784169677734375,-0.42678704857826233,0.2674632668495178,-0.12167314440011978
1790690960344207600,5.79420751953125,-0.3782472014427185,0.1613238900899887,0.026641832664608955
1790690960354245400,5.804245361328125,-0.32988500595092773,0.19128818809986115,0.10029181838035583
1790690960364283600,5.81428369140625,-0.22819989919662476,0.19285927712917328,0.1404716670513153
1790690960374321400,5.8243212890625,-0.20170465111732483,0.12867602705955505,0.20647919178009033
1790690960384359700,5.834359619140625,-0.29665595293045044,0.22703547775745392,0.2264382541179657
1790690960394397400,5.8443974609375,-0.3509831130504608,0.33240264654159546,0.20315583050251007
1790690960404435700,5.854435791015625,-0.4165848195552826,0.4176839292049408,0.227981299161911
1790690960414474500,5.864474609375,-0.4943983852863312,0.5278035402297974,0.2258017659187317
1790690960424512500,5.874512451171875,-0.5403607487678528,0.5437197685241699,0.27758142352104187
1790690960434550500,5.884550537109375,-0.6304389834403992,0.6710867881774902,0.35071876645088196
1790690960444588500,5.894588623046875,-0.8202328681945801,0.39209863543510437,0.2882956266403198
1790690960454626600,5.90462646484375,-1.061051845550537,0.5095866322517395,0.1811896711587906
1790690960464664600,5.91466455078125,-1.3756717443466187,0.8893740177154541,0.20667365193367004
1790690960474702600,5.92470263671875,-1.5617427825927734,0.6506929993629456,0.12920121848583221
1790690960484740600,5.93474072265625,-1.7636559009552002,0.19835834205150604,0.32897430658340454
1790690960494778600,5.944778564453125,-1.9442312717437744,0.985595703125,0.5984619855880737
1790690960504816600,5.954816650390625,-1.9027751684188843,-0.31512072682380676,0.14468370378017426
1790690960514854400,5.9648544921875,-1.903910756111145,0.5255993008613586,0.5637960433959961
1790690960524892700,5.974892578125,-1.8337807655334473,0.07525761425495148,0.07813611626625061
1790690960534930400,5.984930419921875,-1.7546981573104858,0.15229061245918274,0.17725737392902374
1790690960544968700,5.99496875,-1.8603378534317017,0.24727189540863037,0.3218224048614502
1790690960555006500,6.00500634765625,-1.4403573274612427,-1.7077137231826782,0.3278712332248688
1790690960565044700,6.015044677734375,-1.3435273170471191,-0.5320836305618286,0.3588578402996063
1790690960575083500,6.02508349609375,-0.7541620135307312,-0.7367318868637085,0.1803823858499527
1790690960585121500,6.03512158203125,-0.28831973671913147,-0.8638800978660583,-0.050713539123535156
1790690960595159600,6.04515966796875,-0.03454338759183884,-0.2626917064189911,-0.1024627536535263
1790690960605197300,6.055197265625,0.11802157759666443,-0.13628122210502625,-0.15808148682117462
1790690960615235600,6.065235595703125,0.20156867802143097,-0.2940729856491089,-0.15225635468959808
1790690960625273300,6.0752734375,0.20467813313007355,-0.38794946670532227,-0.1951521933078766
1790690960635311600,6.0853115234375,0.21165429055690765,-0.4790530204772949,-0.21640023589134216
1790690960645349400,6.095349365234375,0.2558963894844055,-0.5230258703231812,-0.17472395300865173
1790690960655387600,6.1053876953125,0.4800986051559448,-0.4592791199684143,-0.12184742093086243
1790690960665425700,6.11542578125,0.7244479656219482,-0.26295727491378784,-0.06612240523099899
1790690960675463400,6.12546337890625,0.7785850167274475,-0.8592595458030701,0.10631727427244186
1790690960685501700,6.135501708984375,0.4857475459575653,-0.657684862613678,-0.395399272441864
1790690960695539500,6.14553955078125,0.43610888719558716,-0.4292604625225067,-0.19397427141666412
1790690960705577700,6.15557763671875,0.7157678008079529,-0.40779057145118713,-0.18551798164844513
1790690960715615500,6.165615478515625,0.9045534729957581,-0.5949881672859192,-0.19231010973453522
1790690960725653500,6.175653564453125,0.9641702175140381,-0.744326651096344,-0.05731939896941185
1790690960735692500,6.185692626953125,1.0902879238128662,-0.5553125143051147,0.03703373670578003
1790690960745730600,6.19573046875,0.9301263689994812,-0.1646805703639984,-0.02520643174648285
1790690960755768600,6.2057685546875,0.4528929591178894,0.12065929174423218,-0.0720149502158165
1790690960765806300,6.215806396484375,0.16223713755607605,-0.08083297312259674,-0.10372800379991531
1790690960775844600,6.2258447265625,0.1121864765882492,-0.05755455046892166,0.099357470870018
1790690960785882400,6.23588232421875,0.07409364730119705,0.2900959849357605,-0.07703103125095367
1790690960795920600,6.245920654296875,0.045048683881759644,0.1453278809785843,-0.011284243315458298
1790690960805958400,6.25595849609375,0.05189574509859085,-0.818043053150177,-0.06412062793970108
1790690960815996400,6.265996337890625,0.002473868429660797,0.19860032200813293,0.04246653988957405
1790690960826034400,6.276034423828125,0.01063721813261509,0.059202536940574646,0.08963141590356827
1790690960836072400,6.286072509765625,0.046827979385852814,0.10919379442930222,0.019992154091596603
1790690960846110500,6.2961103515625,0.18255597352981567,-0.05076247826218605,-0.04053821787238121
1790690960856148500,6.3061484375,0.17916470766067505,-0.10439561307430267,0.01915360800921917
1790690960866186500,6.3161865234375,0.15841495990753174,-0.053444813936948776,0.14989642798900604
1790690960876224500,6.326224609375,0.14741982519626617,-0.13284242153167725,0.19372034072875977
1790690960886263600,6.336263671875,0.11845357716083527,-0.08779175579547882,0.1238364577293396
1790690960896301600,6.346301513671875,0.08342475444078445,-0.09375964105129242,0.06752285361289978
1790690960906339600,6.356339599609375,0.055752381682395935,-0.11300283670425415,0.06847280263900757
1790690960916377600,6.366377685546875,0.03181988373398781,-0.09484940767288208,0.08112575113773346
1790690960926415400,6.376415283203125,0.03921913728117943,-0.12024616450071335,0.10430936515331268
1790690960936453600,6.38645361328125,0.05386652424931526,-0.11280209571123123,0.09513530880212784
1790690960946491400,6.396491455078125,0.08621084690093994,-0.047817766666412354,0.030371421948075294
1790690960956529700,6.40652978515625,0.10010668635368347,-0.05391720309853554,0.01259588822722435
1790690960966567400,6.4165673828125,0.0785205066204071,-0.04616900160908699,0.07664359360933304
1790690960976605400,6.42660546875,0.0705597847700119,-0.10809415578842163,0.14172539114952087
1790690960986643500,6.4366435546875,0.0506608784198761,-0.07605142891407013,0.11672377586364746
1790690960996681500,6.446681396484375,0.054723531007766724,-0.13798804581165314,0.09828537702560425
1790690961006719500,6.456719482421875,0.05562356114387512,-0.07920652627944946,0.06823234260082245
1790690961016757500,6.466757568359375,0.03953034430742264,-0.07840704917907715,0.06162343546748161
1790690961026796000,6.476796142578125,0.05300765112042427,-0.06957121193408966,0.021819796413183212
1790690961036834300,6.486834228515625,0.059406161308288574,-0.09781776368618011,-0.018717508763074875
1790690961046873000,6.496873046875,0.04079264774918556,-0.09245447814464569,-0.0009049696382135153
1790690961056911000,6.5069111328125,0.038878101855516434,-0.03344122692942619,-0.019654689356684685
1790690961066949000,6.51694921875,0.004672382026910782,-0.06741468608379364,-0.01147571299225092
1790690961076987400,6.5269873046875,-0.03425664082169533,-0.0802932009100914,0.03722525015473366
1790690961087025200,6.537025146484375,-0.04480405151844025,-0.09199988096952438,0.0502951554954052
1790690961097063200,6.547063232421875,-0.03147919103503227,-0.0634465292096138,0.01258852332830429
1790690961107101200,6.55710107421875,-0.017653238028287888,-0.0552920363843441,-0.013952445238828659
1790690961117139200,6.56713916015625,-0.010407575406134129,-0.03574363514780998,0.0012672529555857182
1790690961127177200,6.57717724609375,-0.0355658121407032,-0.05778667330741882,0.05358903482556343
1790690961137215200,6.58721533203125,-0.06341928243637085,-0.044613346457481384,0.06433355808258057
1790690961147253000,6.5972529296875,-0.07761842012405396,-0.030881769955158234,0.004075593315064907
1790690961157291300,6.607291259765625,-0.07828367501497269,-0.019593162462115288,-0.0754312202334404
1790690961167329000,6.6173291015625,-0.07593663036823273,-0.009179404005408287,-0.09402487426996231
1790690961177367300,6.6273671875,-0.06038963049650192,-0.021438732743263245,-0.06321743130683899
1790690961187405000,6.637405029296875,-0.0554361492395401,-0.04278583452105522,-0.035263821482658386
1790690961197443300,6.647443359375,-0.039990346878767014,-0.0469459593296051,-0.05701998248696327
1790690961207482000,6.657482177734375,-0.011689165607094765,-0.0172734372317791,-0.1129428818821907
1790690961217520000,6.66752001953125,0.013605805113911629,0.0317513607442379,-0.12373959273099899
1790690961227558100,6.67755810546875,0.04026922583580017,0.032823655754327774,-0.047286465764045715
1790690961237596200,6.68759619140625,0.062172919511795044,0.05985713750123978,0.0038986913859844208
1790690961247634200,6.69763427734375,0.0722336620092392,0.08837751299142838,-0.0029351781122386456
1790690961257672200,6.707672119140625,0.0723298043012619,0.10932300984859467,-0.01844276487827301
1790690961267710200,6.717710205078125,0.06695272773504257,0.11141343414783478,-0.0023519021924585104
1790690961277748200,6.727748291015625,0.049628861248493195,0.09573247283697128,0.03713079169392586
1790690961287786200,6.7377861328125,0.02211369201540947,0.08057460933923721,0.06835940480232239
1790690961297824300,6.74782421875,0.003435078775510192,0.05535314232110977,0.07443727552890778
1790690961307862000,6.757862060546875,-0.00038613821379840374,0.06147516891360283,0.05469812452793121
1790690961317900300,6.767900390625,-0.003888993989676237,0.056260962039232254,0.045551493763923645
1790690961327938000,6.77793798828125,-0.0018486320041120052,0.04550647735595703,0.055072177201509476
1790690961337976300,6.787976318359375,0.0035456009209156036,0.04263319447636604,0.048200689256191254
1790690961348014000,6.79801416015625,0.015277205966413021,0.029726503416895866,0.0076621221378445625
1790690961358052400,6.80805224609375,0.02005252055823803,0.01386471651494503,-0.027206912636756897
1790690961368091100,6.818091064453125,0.0152442567050457,-0.0029784473590552807,-0.027109157294034958
1790690961378129200,6.828129150390625,-0.0028487262316048145,-0.04204089567065239,-0.02705589309334755
1790690961388167200,6.838167236328125,-0.016072537750005722,-0.053348831832408905,-0.039311714470386505
1790690961398205000,6.848204833984375,-0.026058325543999672,-0.06612294912338257,-0.03440164402127266
1790690961408243200,6.8582431640625,-0.03533544763922691,-0.06273195147514343,-0.019259976223111153
1790690961418281000,6.868281005859375,-0.04414434731006622,-0.061455659568309784,-0.010156072676181793
1790690961428319200,6.8783193359375,-0.049173157662153244,-0.04846406355500221,-0.02810591459274292
1790690961438357000,6.88835693359375,-0.05231728404760361,-0.021227650344371796,-0.024589477106928825
1790690961448395300,6.898395263671875,-0.031596675515174866,-0.018596231937408447,0.002580290660262108
1790690961458433000,6.90843310546875,-0.007830890826880932,-0.02126631699502468,0.035183243453502655
1790690961468471000,6.918470947265625,0.012768126092851162,-0.02095441147685051,0.05131091549992561
1790690961478509300,6.92850927734375,0.020816199481487274,-0.0448477566242218,0.04552493244409561
1790690961488547000,6.938547119140625,0.004648986272513866,-0.062076278030872345,0.026158636435866356
1790690961498585300,6.94858544921875,-0.01522085815668106,-0.039337407797575,-0.0032647657208144665
1790690961508623000,6.958623046875,-0.022463781759142876,-0.026977522298693657,-0.017204612493515015
1790690961518661400,6.968661376953125,-0.012519005686044693,-0.013419635593891144,-0.009078508242964745
1790690961528700200,6.9787001953125,0.010738074779510498,-0.02562548965215683,-0.0092383474111557
1790690961538738200,6.98873828125,0.01960054226219654,0.0021882993169128895,-0.018416132777929306
1790690961548776200,6.998776123046875,0.03903241083025932,0.029760966077446938,-0.020258093252778053
1790690961558814000,7.00881396484375,0.06598173826932907,0.04842892289161682,-0.019538506865501404
1790690961568852200,7.018852294921875,0.06174483522772789,0.03832728788256645,-0.013479035347700119
1790690961578890000,7.028889892578125,0.06030566617846489,0.032386310398578644,0.003298613242805004
1790690961588928300,7.03892822265625,0.030689530074596405,0.017662866041064262,-0.000553550198674202
1790690961598966000,7.048966064453125,-0.02555270493030548,0.006614208687096834,0.03696479648351669
1790690961609004300,7.05900439453125,-0.04117777571082115,-0.02685762569308281,0.0770372524857521
1790690961619042000,7.0690419921875,-0.035971563309431076,-0.007612559013068676,0.0807688757777214
1790690961629080000,7.079080078125,0.004368174821138382,-0.005494759883731604,0.06509888172149658
1790690961639118000,7.0891181640625,0.04646848887205124,0.017838526517152786,0.04630522057414055
1790690961649156000,7.099156005859375,0.06067656725645065,0.03140946477651596,0.04533765837550163
1790690961659194000,7.109194091796875,0.056042399257421494,0.015352999791502953,0.03853274881839752
1790690961669232000,7.119232177734375,0.043811723589897156,-0.0032099259551614523,0.0327836312353611
1790690961679270100,7.129270263671875,0.030935604125261307,0.07705695182085037,0.005553876981139183
1790690961689309200,7.13930908203125,0.03825568035244942,0.11837631464004517,-0.011789543554186821
1790690961699347200,7.14934716796875,0.026277050375938416,0.12738606333732605,-0.037032049149274826
1790690961709385200,7.15938525390625,0.03531433641910553,0.16355839371681213,-0.07208378612995148
1790690961719423000,7.169423095703125,0.04555259272456169,0.25510403513908386,-0.08104825764894485
1790690961729461200,7.179461181640625,0.04169059172272682,0.21084004640579224,-0.09789206832647324
1790690961739499000,7.1894990234375,0.03103075549006462,0.27104905247688293,-0.07767467945814133
1790690961749537300,7.199537353515625,0.0473526231944561,0.45429757237434387,-0.0621320903301239
1790690961759575000,7.209574951171875,0.12470919638872147,0.24281272292137146,-0.05170101672410965
1790690961769613300,7.21961328125,0.1379079818725586,0.08082723617553711,-0.014404849149286747
1790690961779651000,7.229651123046875,0.15936319530010223,0.026933914050459862,0.026731669902801514
1790690961789689000,7.239689208984375,0.12583525478839874,-0.02049783244729042,0.03788486123085022
1790690961799727000,7.24972705078125,0.07170756906270981,-0.09263194352388382,-0.0038079884834587574
1790690961809765000,7.25976513671875,0.014705766923725605,-0.06679342687129974,-0.06031408533453941
1790690961819803100,7.26980322265625,-0.07235643267631531,0.0014918851666152477,-0.029863767325878143
1790690961829841200,7.279841064453125,-0.18570539355278015,-0.03707404434680939,-0.03653884679079056
1790690961839879000,7.28987890625,-0.2480156421661377,-0.014671001583337784,-0.05376683175563812
1790690961849918200,7.299918212890625,-0.18239939212799072,1.35031259059906,-0.3858552873134613
1790690961859956200,7.309956298828125,-0.11128020286560059,-0.031795814633369446,0.03550286591053009
1790690961869994200,7.319994140625,0.05233820900321007,-0.5957837700843811,0.3712898790836334
1790690961880032000,7.330031982421875,0.027517545968294144,0.0710722878575325,0.04913659766316414
1790690961890070300,7.3400703125,0.016244541853666306,0.17072688043117523,-0.1981135755777359
1790690961900108000,7.35010791015625,0.029536910355091095,-0.14533254504203796,-0.1157449409365654
1790690961910146300,7.360146240234375,-0.015819385647773743,-0.1278575360774994,0.04845750704407692
1790690961920184000,7.37018408203125,-0.05820625647902489,0.03317369893193245,0.03070833720266819
1790690961930222000,7.38022216796875,-0.07449091225862503,-0.01261189579963684,-0.040046315640211105
1790690961940260000,7.390260009765625,-0.06952092796564102,-0.006403535138815641,-0.015606486238539219
1790690961950298000,7.400298095703125,-0.07184568047523499,0.05513705685734749,-0.038815952837467194
1790690961960336100,7.410336181640625,-0.0771901085972786,-0.037841349840164185,0.025314297527074814
1790690961970374100,7.4203740234375,-0.1049736887216568,-0.017185989767313004,-0.05342710763216019
1790690961980412200,7.430412109375,-0.16761444509029388,-0.0405549630522728,-0.057681240141391754
1790690961990450200,7.4404501953125,-0.2545797526836395,-0.03465291112661362,-0.04726121574640274
1790690962000488000,7.450488037109375,-0.37415382266044617,0.041604574769735336,0.025161320343613625
1790690962010527200,7.46052734375,-0.5039898753166199,0.14896729588508606,0.019830500707030296
1790690962020564700,7.470564697265625,-0.6563831567764282,-0.11951075494289398,0.0676875039935112
1790690962030602800,7.480602783203125,-0.6909996271133423,-0.15525299310684204,0.042808644473552704
1790690962040640800,7.490640869140625,-0.7183724045753479,-0.07689081132411957,0.0010377621510997415
1790690962050678800,7.5006787109375,-0.791820228099823,0.04684098809957504,0.0403585359454155
1790690962060716800,7.510716796875,-0.9434773325920105,-0.13953138887882233,0.11739221960306168
1790690962070754800,7.5207548828125,-1.1137244701385498,-0.3630157709121704,0.1882677972316742
1790690962080792600,7.53079248046875,-1.135151743888855,-0.3608016073703766,0.20968680083751678
1790690962090830800,7.540830810546875,-0.9751898050308228,-0.08865377306938171,0.09473991394042969
1790690962100868600,7.55086865234375,-0.6635892987251282,0.16763445734977722,0.05822930857539177
1790690962110907000,7.560906982421875,-0.3908385634422302,0.06949575990438461,-0.09163575619459152
1790690962120944600,7.570944580078125,-0.19626323878765106,0.077826127409935,-0.1214732825756073
1790690962130983000,7.58098291015625,-0.11397098749876022,0.09645120054483414,-0.11665714532136917
1790690962141020700,7.591020751953125,-0.0436163954436779,-0.06124867871403694,-0.06287993490695953
1790690962151058700,7.60105859375,0.013596635311841965,-0.10266072303056717,-0.058971382677555084
1790690962161096700,7.6110966796875,0.03259429708123207,-0.10709542036056519,-0.05424081161618233
1790690962171134700,7.621134765625,0.08667651563882828,-0.11420073360204697,-0.022837063297629356
1790690962181173800,7.631173828125,0.17225027084350586,-0.0848095566034317,0.00007011822890490294
1790690962191211800,7.641211669921875,0.2735747694969177,-0.08877962827682495,0.00484442338347435
1790690962201249800,7.651249755859375,0.3493052124977112,0.0009236219339072704,0.01509945746511221
1790690962211287800,7.661287841796875,0.4478057026863098,-0.02521600015461445,0.025793535634875298
1790690962221325800,7.671325927734375,0.572109580039978,-0.039943546056747437,-0.007011282257735729
1790690962231363800,7.68136376953125,0.5918152332305908,0.10132931172847748,-0.0018274832982569933
1790690962241401600,7.691401611328125,0.5289915204048157,0.130558043718338,0.0753282904624939
1790690962251439900,7.70143994140625,0.48170340061187744,0.01430823840200901,0.07939128577709198
1790690962261477600,7.7114775390625,0.4378203749656677,-0.0338401161134243,0.0319790318608284
1790690962271516000,7.721515869140625,0.3687734007835388,0.08898311853408813,-0.0020457005593925714
1790690962281553700,7.7315537109375,0.35221198201179504,0.0940961167216301,-0.0011215838603675365
1790690962291592000,7.741592041015625,0.3660055994987488,0.053759727627038956,0.008031193166971207
1790690962301629700,7.751629638671875,0.4007217586040497,0.055444974452257156,-0.01210603304207325
1790690962311667700,7.761667724609375,0.4289763271808624,0.05528416857123375,-0.04500547796487808
1790690962321705700,7.771705810546875,0.41357260942459106,0.07899775356054306,-0.058629944920539856
1790690962331743700,7.78174365234375,0.268503874540329,0.05626080185174942,-0.04746033251285553
1790690962341782800,7.79178271484375,0.11137177795171738,0.06408996134996414,-0.05294804275035858
1790690962351820800,7.80182080078125,0.024032043293118477,0.06488922983407974,-0.05136715993285179
1790690962361858800,7.81185888671875,0.0318838432431221,0.0456731915473938,-0.02456856705248356
1790690962371896800,7.821896728515625,0.037158459424972534,0.03784158080816269,-0.009526551701128483
1790690962381934800,7.831934814453125,0.031508829444646835,0.03604261577129364,-0.017110435292124748
1790690962391972900,7.841972900390625,0.019556183367967606,0.03622099384665489,-0.03297362104058266
1790690962402010600,7.8520107421875,0.017448823899030685,0.023378700017929077,-0.026763129979372025
1790690962412049000,7.862048828125,0.02498936653137207,0.03161366283893585,-0.013905612751841545
1790690962422086700,7.872086669921875,0.03250507265329361,0.028867946937680244,-0.0013338951393961906
1790690962432125000,7.882125,0.02670806273818016,0.021310385316610336,-0.000757250702008605
1790690962442162700,7.89216259765625,-0.0005736252060160041,0.019193172454833984,-0.0014984086155891418
1790690962452201000,7.902200927734375,-0.019522283226251602,0.011705903336405754,0.007442380301654339
1790690962462238700,7.91223876953125,-0.013374908827245235,-0.003195282304659486,0.017816990613937378
1790690962472276700,7.92227685546875,0.004939270671457052,-0.0078873410820961,0.019418442621827126
1790690962482314800,7.932314697265625,0.01547207310795784,-0.009493760764598846,0.010870493948459625
1790690962492352800,7.942352783203125,0.01462944969534874,-0.0014605512842535973,0.004127741791307926
1790690962502390800,7.952390869140625,0.0029520196840167046,0.012142077088356018,0.004757046699523926
1790690962512429800,7.962429931640625,-0.006369424983859062,0.024158097803592682,0.002620243700221181
1790690962522467800,7.9724677734375,-0.013293111696839333,0.030619725584983826,-0.007547704968601465
1790690962532505900,7.982505859375,-0.017063157632946968,0.02226043865084648,-0.010363936424255371
1790690962542544000,7.9925439453125,-0.014356853440403938,0.0008646035566926003,-0.01594592072069645
1790690962552582000,8.002581787109374,-0.008381328545510769,-0.01342000812292099,-0.04341021552681923
1790690962562619600,8.01261962890625,-0.0000315194483846426,-0.01799105852842331,-0.0711401104927063
1790690962572658000,8.022657958984375,0.014905654825270176,-0.05669403448700905,-0.05093687027692795
1790690962582695700,8.03269580078125,0.03186839446425438,-0.06104670464992523,-0.017513936385512352
1790690962592734000,8.04273388671875,0.03440452367067337,-0.04368582367897034,0.00346964318305254
1790690962602771700,8.052771728515625,0.01856856793165207,-0.027738815173506737,0.0034842905588448048
1790690962612809700,8.062809814453125,0.002070361515507102,-0.007891658693552017,-0.010206040926277637
1790690962622847700,8.07284765625,0.0025047229137271643,0.002576695289462805,-0.021599311381578445
1790690962632885800,8.0828857421875,0.00916152074933052,0.01100863330066204,-0.02490788698196411
1790690962642923800,8.092923828125,0.018290039151906967,0.012437153607606888,-0.02448178082704544
1790690962652961800,8.1029619140625,0.026120150461792946,0.010317382402718067,-0.015089759603142738
1790690962662999800,8.112999755859375,0.034122683107852936,-0.003992581274360418,-0.002495404100045562
1790690962673037800,8.123037841796876,0.03984547406435013,-0.01505748089402914,0.019543565809726715
1790690962683076900,8.133076904296875,0.044592294842004776,-0.02573755383491516,0.030605006963014603
1790690962693115000,8.143114990234375,0.048189498484134674,-0.034202948212623596,0.007212617434561253
1790690962703153000,8.15315283203125,0.03550352901220322,0.0035931668244302273,-0.004640580154955387
1790690962713191000,8.16319091796875,0.019918333739042282,0.004372888710349798,0.013907469809055328
1790690962723228700,8.173228759765625,0.020286116749048233,0.00555400038138032,0.025619786232709885
1790690962733267000,8.183266845703125,0.01803947240114212,0.008788035251200199,0.006424172781407833
1790690962743304700,8.1933046875,0.021505309268832207,0.013653629459440708,-0.01950250007212162
1790690962753343000,8.203343017578124,0.020148545503616333,0.01120235025882721,-0.012265743687748909
1790690962763380700,8.213380615234374,0.013740445487201214,-0.001825300743803382,0.004276215564459562
1790690962773418800,8.223418701171875,-0.0013533227611333132,-0.014824135228991508,0.010845999233424664
1790690962783456800,8.233456787109375,-0.017781298607587814,-0.02729598432779312,0.006771895103156567
1790690962793494800,8.243494873046876,-0.02915170229971409,-0.03163033351302147,0.003237564582377672
1790690962803532800,8.25353271484375,-0.027622248977422714,-0.02447042241692543,0.01211734302341938
1790690962813570800,8.26357080078125,-0.0258729737251997,-0.02070343866944313,0.022479955106973648
1790690962823608800,8.27360888671875,-0.02925572171807289,-0.020068274810910225,0.023017646744847298
1790690962833646800,8.283646728515626,-0.013415084220468998,-0.008813699707388878,-0.0011630428489297628
1790690962843684600,8.2936845703125,0.012898278422653675,0.002470646519213915,-0.05742178484797478
1790690962853723600,8.3037236328125,0.03498748689889908,0.009695375338196754,-0.07927051186561584
1790690962863761700,8.31376171875,0.0439775213599205,-0.006358692422509193,-0.04787823185324669
1790690962873799700,8.323799560546876,0.030353551730513573,-0.013879669830203056,-0.0001165380235761404
1790690962883837700,8.333837646484374,0.0024742488749325275,-0.018619032576680183,0.005675837397575378
1790690962893875700,8.343875732421875,-0.021351266652345657,-0.0231719221919775,-0.017242442816495895
1790690962903913700,8.353913818359375,-0.031384192407131195,-0.023273387923836708,-0.019702404737472534
1790690962913952000,8.363951904296876,-0.028149671852588654,-0.018962476402521133,0.00784486997872591
1790690962923989800,8.37398974609375,-0.016358526423573494,-0.012596989050507545,0.0462053045630455
1790690962934027800,8.38402783203125,0.0014196725096553564,0.002724975347518921,0.058991409838199615
1790690962944065800,8.394065673828125,0.015715520828962326,0.0006061643362045288,0.06967893987894058
1790690962954103800,8.404103759765626,0.022000545635819435,0.011568647809326649,0.08000455796718597
1790690962964141800,8.414141845703124,0.018880918622016907,0.012584909796714783,0.0967947244644165
1790690962974179800,8.424179931640625,0.011575369164347649,0.0015919576399028301,0.08448364585638046
1790690962984217900,8.4342177734375,0.0016998350620269775,0.00837636087089777,0.06430673599243164
1790690962994256000,8.444255859375,-0.0045328326523303986,0.015886960551142693,0.057398635894060135
1790690963004293600,8.454293701171874,-0.10290547460317612,-0.0036438643001019955,0.07549162209033966
1790690963014332000,8.464331787109375,-0.035584837198257446,-0.029918402433395386,0.06147567555308342
1790690963024371200,8.47437109375,-0.031013254076242447,-0.032569047063589096,0.04544850438833237
1790690963034409200,8.4844091796875,-0.04500626027584076,-0.036428920924663544,0.022880371659994125
1790690963044447200,8.494447265625,-0.08564077317714691,-0.014609641395509243,0.017531678080558777
1790690963054485200,8.5044853515625,-0.14230474829673767,-0.04001796245574951,0.02220330201089382
1790690963064523300,8.514523193359375,-0.15442612767219543,-0.03235737979412079,0.00113769865129143
1790690963074561000,8.52456103515625,-0.11998927593231201,-0.027501849457621574,-0.001184262102469802
1790690963084599300,8.534599365234374,-0.06667279452085495,-0.04981328174471855,0.018132708966732025
1790690963094637000,8.544636962890625,-0.010974488221108913,-0.06547458469867706,0.029563196003437042
1790690963104675300,8.55467529296875,0.02091420441865921,-0.06268811970949173,0.021815260872244835
1790690963114713000,8.564713134765626,0.011659147217869759,-0.023371925577521324,0.019187472760677338
1790690963124751400,8.57475146484375,0.017533548176288605,-0.020739655941724777,0.01381454337388277
1790690963134789000,8.5847890625,0.03224203363060951,0.0003747357986867428,0.006852309685200453
1790690963144827100,8.5948271484375,0.034309711307287216,0.022745555266737938,-0.007327425293624401
1790690963154865200,8.604865234375,0.022150026634335518,0.0583629384636879,-0.026589859277009964
1790690963164903200,8.614903076171874,0.02510826475918293,0.04874440282583237,-0.004828902892768383
1790690963174941200,8.624941162109375,0.02740040421485901,0.025003541260957718,0.023466093465685844
1790690963184979200,8.634979248046875,0.02186502516269684,0.04898104444146156,0.006457015872001648
1790690963195017200,8.645017333984375,0.009620875120162964,0.029255274683237076,0.017167983576655388
1790690963205056300,8.65505615234375,-0.018347375094890594,0.00831564050167799,0.040374502539634705
1790690963215094300,8.66509423828125,-0.003998111002147198,-0.008177367970347404,0.03018651157617569
1790690963225132300,8.67513232421875,0.024132858961820602,0.007254585158079863,0.018824666738510132
1790690963235170000,8.685170166015626,0.0329553447663784,-0.014231900684535503,0.01235968992114067
1790690963245208300,8.695208251953124,0.028592552989721298,0.021580692380666733,-0.027650045230984688
1790690963255246000,8.70524609375,0.0008180288132280111,0.009069321677088737,-0.025859186425805092
1790690963265284400,8.715284423828125,-0.03662308678030968,0.008330561220645905,-0.007953688502311707
1790690963275322000,8.725322021484375,-0.03833291307091713,-0.01742018386721611,-0.01941949501633644
1790690963285360400,8.7353603515625,-0.007648769300431013,-0.01356898620724678,-0.044652145355939865
1790690963295398100,8.745398193359375,0.037787459790706635,-0.009563164785504341,-0.023218097165226936
1790690963305436200,8.755436279296875,0.046649396419525146,-0.04524073377251625,0.011772643774747849
1790690963315474200,8.76547412109375,0.041506603360176086,-0.030678467825055122,-0.009635821916162968
1790690963325512200,8.77551220703125,0.021048197522759438,-0.01689261384308338,-0.038964949548244476
1790690963335550200,8.78555029296875,-0.005376676097512245,-0.012285079807043076,-0.023140959441661835
1790690963345588200,8.795588134765625,-0.013460701331496239,0.006975966971367598,0.0037380584981292486
1790690963355626200,8.805626220703125,-0.030121060088276863,0.006321571301668882,0.03234279155731201
1790690963365664300,8.815664306640626,-0.031452372670173645,0.002135614398866892,0.02836696058511734
1790690963375702000,8.825701904296874,-0.01975557766854763,0.014465094543993473,-0.04130659997463226
1790690963385741300,8.8357412109375,0.008092565461993217,0.024867404252290726,-0.10156647115945816
1790690963395779000,8.845779052734375,0.03933010995388031,0.03396518528461456,-0.09562158584594727
1790690963405817300,8.8558173828125,0.04709429293870926,0.0169686246663332,-0.061685189604759216
1790690963415855000,8.865855224609374,0.03233763948082924,0.02047521062195301,-0.059421516954898834
1790690963425893400,8.875893310546875,0.08739130944013596,0.027970943599939346,-0.0695151686668396
1790690963435931100,8.88593115234375,0.1838308423757553,0.05894281715154648,-0.06853608787059784
1790690963445969400,8.895969482421876,0.19929422438144684,0.09967586398124695,-0.08159409463405609
1790690963456007200,8.906007080078124,0.26991167664527893,0.17751926183700562,-0.15098462998867035
1790690963466045200,8.916045166015625,0.3021281957626343,0.17363211512565613,-0.19129636883735657
1790690963476083200,8.926083251953125,0.25456520915031433,0.19310355186462402,-0.20368033647537231
1790690963486121200,8.936121337890626,0.1844329833984375,0.1575024127960205,-0.18941564857959747
1790690963496159200,8.9461591796875,0.15253834426403046,0.1106662005186081,-0.1656930148601532
1790690963506197200,8.956197265625,0.12205341458320618,0.10044818371534348,-0.08716065436601639
1790690963516235300,8.9662353515625,0.08770335465669632,0.048260077834129333,0.050540462136268616
1790690963526273300,8.976273193359376,0.03956352174282074,-0.014043241739273071,0.24272216856479645
1790690963536311000,8.98631103515625,0.05455061048269272,-0.04868138208985329,0.19755497574806213
1790690963546349300,8.996349365234375,0.03395931422710419,-0.03728518262505531,0.14192527532577515
1790690963556387000,9.006386962890625,0.01905185543000698,-0.056880827993154526,0.1767110973596573
1790690963566426400,9.01642626953125,0.012131097726523876,-0.05189938470721245,0.22789545357227325
1790690963576464100,9.026464111328124,-0.022095203399658203,-0.033223383128643036,0.2284819483757019
1790690963586502400,9.03650244140625,-0.04083427041769028,-0.015227872878313065,0.14224879443645477
1790690963596540200,9.0465400390625,-0.04234401509165764,-0.03158873692154884,0.04476645216345787
1790690963606578400,9.056578369140626,-0.023641854524612427,-0.030138060450553894,0.05720481276512146
1790690963616616200,9.0666162109375,-0.002195337787270546,-0.017050962895154953,0.09695754945278168
1790690963626654200,9.076654296875,0.027599843218922615,-0.007245736196637154,0.07377845793962479
1790690963636692200,9.086692138671875,0.05136755853891373,-0.00105144246481359,0.02675700932741165
1790690963646730200,9.096730224609376,0.05469704419374466,0.02020937018096447,-0.024179672822356224
1790690963656768300,9.106768310546874,0.06013761833310127,-0.0170084610581398,-0.07939837127923965
1790690963666806300,9.11680615234375,0.053057603538036346,-0.05550498887896538,-0.09783250838518143
1790690963676844000,9.126843994140625,0.06990662217140198,-0.0365215502679348,-0.15401916205883026
1790690963686882300,9.13688232421875,0.05054357647895813,0.16820202767848969,-0.3020400404930115
1790690963696920000,9.146920166015626,-0.007308152504265308,0.11221626400947571,-0.19028159976005554
1790690963706958300,9.156958251953125,-0.0021884911693632603,0.030220994725823402,0.0066996426321566105
1790690963716996000,9.16699609375,0.014684764668345451,0.01155330240726471,-0.01612710952758789
1790690963727034400,9.177034423828125,-0.023304695263504982,0.006037629209458828,-0.03975094482302666
1790690963737072000,9.187072021484376,-0.04529372975230217,-0.03521106019616127,-0.02663973905146122
1790690963747110100,9.197110107421874,-0.033056773245334625,-0.0577230267226696,-0.04621104523539543
1790690963757149200,9.207149169921875,-0.01287088543176651,-0.06611810624599457,-0.059447504580020905
1790690963767187200,9.217187255859375,0.002041485160589218,-0.08047813922166824,-0.06110771745443344
1790690963777225200,9.22722509765625,-0.0030882603023201227,-0.08359020948410034,-0.06939559429883957
1790690963787263200,9.23726318359375,-0.021468864753842354,-0.0782518982887268,-0.05945507436990738
1790690963797301200,9.24730126953125,-0.03765825554728508,-0.08926321566104889,-0.05572102591395378
1790690963807339300,9.25733935546875,-0.03875467926263809,-0.060365524142980576,-0.11230707168579102
1790690963817377300,9.267377197265626,-0.06290658563375473,-0.027139712125062943,-0.09269558638334274
1790690963827415300,9.277415283203124,-0.05792407691478729,-0.041125837713479996,-0.006040319800376892
1790690963837453000,9.287453125,-0.05957242473959923,-0.04580128565430641,0.012631671503186226
1790690963847491300,9.2974912109375,-0.04869847372174263,-0.04583883658051491,0.011609017848968506
1790690963857529000,9.307529052734376,-0.028009625151753426,-0.04739858955144882,0.03823156654834747
1790690963867567400,9.3175673828125,-0.010980308055877686,-0.03890044614672661,0.05237907916307449
1790690963877605000,9.327605224609375,-0.0015195454470813274,-0.015697656199336052,0.04825387895107269
1790690963887643400,9.337643310546875,0.008216438814997673,0.011548612266778946,0.0560779795050621
1790690963897681200,9.34768115234375,0.023122914135456085,0.030285071581602097,0.0700465589761734
1790690963907719200,9.35771923828125,0.041414033621549606,0.04300219938158989,0.07228681445121765
1790690963917757200,9.367757080078125,0.045661021023988724,0.048369161784648895,0.05022771283984184
1790690963927795200,9.377795166015625,0.03444671630859375,0.057028163224458694,0.014141345396637917
1790690963937834200,9.387834228515626,0.022701028734445572,0.052855733782052994,-0.035253360867500305
1790690963947872300,9.397872314453124,0.005276764743030071,0.05432899296283722,-0.027445508167147636
1790690963957910300,9.40791015625,-0.0020438835490494967,0.026665834710001945,0.006716339383274317
1790690963967948300,9.4179482421875,-0.005811990238726139,0.013223262503743172,-0.0059975916519761086
1790690963977986300,9.427986328125,0.00016129226423799992,0.001357230357825756,-0.0332210436463356
1790690963988024300,9.4380244140625,0.020328877493739128,-0.009590758010745049,-0.032518502324819565
1790690963998062000,9.44806201171875,0.038608282804489136,0.004628549795597792,-0.038370344787836075
1790690964008100400,9.458100341796875,0.050692908465862274,0.020912181586027145,-0.03249567747116089
1790690964018138000,9.46813818359375,0.04503623768687248,0.030321503058075905,0.004602805245667696
1790690964028175600,9.478175537109376,0.018511153757572174,0.028796041384339333,0.02441565692424774
1790690964038213400,9.48821337890625,-0.004687754902988672,0.01758674532175064,0.031016768887639046
1790690964048251600,9.498251708984375,-0.010822612792253494,0.03185063600540161,0.03409884124994278
1790690964058289400,9.508289306640625,0.002801094204187393,0.04020433500409126,0.036204468458890915
1790690964068327700,9.51832763671875,0.02138063684105873,0.024395812302827835,0.04544750228524208
1790690964078365400,9.528365478515624,0.03572845458984375,0.014190474525094032,0.05299210548400879
1790690964088403700,9.53840380859375,0.04025636240839958,0.030467182397842407,0.05709443241357803
1790690964098441700,9.548441650390625,0.03634584695100784,0.014334224164485931,0.05596822500228882
1790690964108479500,9.5584794921875,0.02819976955652237,0.0012527764774858952,0.04877449572086334
1790690964118517800,9.568517822265624,0.006066583562642336,-0.00577935017645359,0.04108639433979988
1790690964128556800,9.578556884765625,-0.015384113416075706,-0.0178205668926239,0.02446720562875271
1790690964138594600,9.588594482421875,-0.021740509197115898,-0.030268505215644836,0.007266616448760033
1790690964148632600,9.598632568359376,-0.015523361042141914,-0.04820755869150162,0.003222606610506773
1790690964158670600,9.608670654296875,-0.006519479211419821,-0.06668669730424881,-0.007701680064201355
1790690964168708600,9.61870849609375,-0.006394843105226755,-0.05877285078167915,-0.01420352142304182
1790690964178746600,9.62874658203125,-0.002862498164176941,-0.02335951291024685,-0.025515686720609665
1790690964188784600,9.63878466796875,0.006625811569392681,-0.03545106202363968,-0.04011993110179901
1790690964198822400,9.648822509765624,0.004357823170721531,-0.06596583127975464,-0.046497881412506104
1790690964208860700,9.658860595703125,-0.037715062499046326,-0.009374191984534264,-0.0322936475276947
1790690964218898400,9.6688984375,-0.04008892551064491,-0.06197156384587288,0.024847667664289474
1790690964228936700,9.678936767578126,-0.04831143468618393,-0.0495697557926178,0.04695643484592438
1790690964238974500,9.688974365234374,-0.05195342004299164,-0.02932334505021572,0.033311229199171066
1790690964249012700,9.6990126953125,-0.04085549712181091,-0.018456049263477325,0.03341162949800491
1790690964259050500,9.709050537109375,-0.025961199775338173,-0.0010286446195095778,0.04823928326368332
1790690964269088500,9.719088623046876,-0.011026726104319096,0.004437493626028299,0.037506476044654846
1790690964279126500,9.72912646484375,0.0023129729088395834,0.009933726862072945,0.0120586222037673
1790690964289164500,9.73916455078125,0.010348795913159847,0.00900614820420742,-0.012631277553737164
1790690964299202600,9.74920263671875,0.007874371483922005,-0.04992487281560898,-0.050620999187231064
1790690964309240600,9.759240478515625,0.0019693439826369286,0.005835329182446003,-0.12007836997509003
1790690964319279600,9.769279541015624,-0.01594790443778038,0.0335366316139698,-0.11711495369672775
1790690964329317600,9.779317626953125,-0.005610845051705837,0.008688272908329964,-0.1058545783162117
1790690964339355600,9.789355712890625,0.0135907381772995,-0.023123452439904213,-0.10380556434392929
1790690964349393700,9.7993935546875,0.025784021243453026,0.0009067831560969353,-0.10772919654846191
1790690964359431400,9.809431396484374,0.019778208807110786,0.02080565318465233,-0.10325079411268234
1790690964369469700,9.8194697265625,0.005822446662932634,0.04364199563860893,-0.08341343700885773
1790690964379507500,9.829507568359375,-0.0010707284091040492,0.050532229244709015,-0.052469782531261444
1790690964389545700,9.839545654296876,-0.0025442554615437984,0.051549822092056274,-0.012632355093955994
1790690964399583500,9.84958349609375,0.000052972231060266495,0.04991602525115013,-0.0026592821814119816
1790690964409621800,9.859621826171875,-0.007046482525765896,0.03744231164455414,-0.02554915100336075
1790690964419659500,9.869659423828125,-0.01797442138195038,0.049904149025678635,-0.03962758556008339
1790690964429697500,9.879697509765625,-0.010629689320921898,0.05807685852050781,-0.037227813154459
1790690964439735600,9.889735595703126,0.008287347853183746,0.04206688702106476,-0.030932161957025528
1790690964449773600,9.899773681640625,0.017498955130577087,0.029187839478254318,-0.03095293790102005
1790690964459811600,9.9098115234375,0.019875524565577507,0.009948154911398888,-0.049671463668346405
1790690964469849600,9.919849609375,-0.006534777581691742,-0.0321686714887619,-0.044680166989564896
1790690964479887600,9.9298876953125,-0.010143431834876537,-0.034617338329553604,-0.02259131334722042
1790690964489925600,9.939925537109374,-0.0337534174323082,-0.010806014761328697,-0.0011001373641192913
1790690964499963600,9.949963623046875,-0.013439398258924484,-0.02992303855717182,0.048692137002944946
1790690964510001700,9.960001708984375,0.00633723521605134,-0.0350877046585083,0.035869285464286804
1790690964520040400,9.97004052734375,0.011063888669013977,-0.015869006514549255,0.007029663305729628
1790690964530078700,9.98007861328125,0.001383563969284296,-0.007378848269581795,0.008702660910785198
1790690964540116500,9.990116455078125,-0.014580450020730495,-0.006152675487101078,0.016585133969783783
1790690964550154800,10.00015478515625,-0.025136688724160194,-0.015137648209929466,0.014714263379573822
1790690964560192500,10.010192626953126,-0.03257725387811661,-0.02520034834742546,0.011104665696620941
1790690964570230800,10.020230712890625,-0.035402338951826096,-0.02512764371931553,-0.0006292227189987898
1790690964580268500,10.0302685546875,-0.03473665937781334,-0.017639577388763428,-0.01038889680057764
1790690964590306600,10.040306640625,-0.0276931282132864,0.0017607519403100014,-0.0028798470739275217
1790690964600344600,10.050344482421876,-0.017985567450523376,0.0006674136966466904,-0.0007520439103245735
1790690964610382600,10.060382568359374,-0.00047581642866134644,-0.008691200986504555,-0.015146163292229176
1790690964620420600,10.070420654296875,0.013550180941820145,-0.01215160172432661,-0.035125136375427246
1790690964630458600,10.080458740234375,0.01431051455438137,-0.0224098302423954,-0.05422745645046234
1790690964640496400,10.090496337890626,0.00608925661072135,-0.025624748319387436,-0.0666281133890152
1790690964650534700,10.10053466796875,-0.0006836942629888654,-0.018041398376226425,-0.055060409009456635
1790690964660572400,10.110572509765625,0.0011925739236176014,-0.00913909450173378,-0.04483792930841446
1790690964670610700,10.120610595703125,0.01109394058585167,0.008848961442708969,-0.03590914607048035
1790690964680648400,10.1306484375,0.020924050360918045,0.02699749916791916,-0.013629524037241936
1790690964690686700,10.140686767578124,0.025674330070614815,0.04269710183143616,-0.008790293708443642
1790690964700724500,10.150724365234375,0.02956589311361313,0.052521076053380966,0.003614827524870634
1790690964710762500,10.160762451171875,0.03312573954463005,0.05210375785827637,0.015151374973356724
1790690964720801500,10.170801513671876,0.0295614842325449,0.04714319854974747,0.011954559944570065
1790690964730839800,10.18083984375,0.02494196593761444,0.038834135979413986,0.012337788939476013
1790690964740877600,10.190877685546875,0.019120104610919952,0.032687291502952576,0.02114887721836567
1790690964750915600,10.20091552734375,0.020234636962413788,0.022827204316854477,0.03661864623427391
1790690964760953600,10.21095361328125,0.019446535035967827,0.015791509300470352,0.04278365895152092
1790690964770991600,10.22099169921875,0.018227074295282364,0.008714958094060421,0.037278108298778534
1790690964781029600,10.231029541015625,0.020934171974658966,0.00224139541387558,0.028625601902604103
1790690964791067600,10.241067626953125,0.019526157528162003,-0.005067117512226105,0.014555854722857475
1790690964801105400,10.25110546875,0.010908589698374271,-0.011564483866095543,0.00751279154792428
1790690964811143700,10.261143798828124,-0.005278635770082474,-0.017177628353238106,-0.0005155736580491066
1790690964821181400,10.271181396484375,-0.02097165398299694,-0.026031147688627243,-0.001447778893634677
1790690964831219700,10.2812197265625,-0.028642358258366585,-0.018952198326587677,0.0006001918809488416
1790690964841257500,10.291257568359375,-0.025135662406682968,-0.006915458478033543,0.011710168793797493
1790690964851295700,10.301295654296876,-0.008768405765295029,-0.0023630508221685886,0.015249243006110191
1790690964861333500,10.31133349609375,0.009140659123659134,0.00697782076895237,0.00884078536182642
1790690964871371500,10.32137158203125,0.016432659700512886,0.0007412303239107132,0.004719276912510395
1790690964881409500,10.331409423828125,-0.0016637758817523718,-0.00592966191470623,0.011363041587173939
1790690964891447600,10.341447509765626,-0.00857894029468298,-0.00878164079040289,0.0017761943163350224
1790690964901485600,10.351485595703124,-0.01224113255739212,-0.03377163037657738,-0.03726246580481529
1790690964911523600,10.361523681640625,-0.025133762508630753,-0.047241900116205215,-0.04821418225765228
1790690964921562600,10.371562744140626,-0.043803200125694275,-0.04833885282278061,-0.04226179048418999
1790690964931600600,10.3816005859375,-0.07007288932800293,-0.05250829458236694,-0.04144366458058357
1790690964941638700,10.391638671875,-0.05957185477018356,-0.03444407135248184,-0.04021330177783966
1790690964951676700,10.4016767578125,-0.02573559246957302,-0.03558816760778427,-0.010387763381004333
1790690964961714400,10.41171435546875,-0.0012439851416274905,0.004503112751990557,0.0007160890381783247
1790690964971752700,10.421752685546876,0.05259367823600769,0.029028961434960365,-0.018872791901230812
1790690964981790500,10.43179052734375,0.1399775892496109,0.02403942123055458,-0.020915783941745758
1790690964991828700,10.441828857421875,0.1315862238407135,0.1120651513338089,-0.028188077732920647
1790690965001866500,10.451866455078125,0.10033389180898666,0.048295553773641586,-0.01776452548801899
1790690965011904800,10.46190478515625,0.08694378286600113,0.04182939976453781,-0.020456450060009956
1790690965021942500,10.471942626953124,0.08166471123695374,0.06451494991779327,-0.02779213897883892
1790690965031981000,10.48198095703125,0.10489732772111893,0.035512328147888184,-0.028739426285028458
1790690965042018800,10.492018798828125,0.14854131639003754,0.013129089958965778,-0.020528994500637054
1790690965052057000,10.50205712890625,0.15800140798091888,0.038771871477365494,-0.034002192318439484
1790690965062094800,10.5120947265625,0.17504426836967468,0.022462991997599602,-0.05611012503504753
1790690965072133000,10.522133056640625,0.14386504888534546,0.09014137089252472,-0.0850757285952568
1790690965082171000,10.5321708984375,0.13285264372825623,0.10607203096151352,-0.11715550720691681
1790690965092209200,10.542209228515626,0.10735607147216797,0.0658031702041626,-0.08463910967111588
1790690965102247000,10.552246826171874,0.06356361508369446,-0.060070767998695374,-0.045376237481832504
1790690965112285000,10.562284912109375,-0.006504946853965521,0.01944642700254917,-0.06797502189874649
1790690965122323000,10.572322998046875,-0.07224036753177643,0.07389666885137558,-0.07261842489242554
1790690965132362000,10.582362060546876,-0.07329204678535461,0.0794174075126648,0.015113291330635548
1790690965142400000,10.59239990234375,-0.06397508829832077,0.06707839667797089,0.056654542684555054
1790690965152438000,10.60243798828125,-0.017234215512871742,-0.004431209992617369,0.046007491648197174
1790690965162476000,10.61247607421875,0.006323995999991894,0.013011220842599869,0.03998742625117302
1790690965172514000,10.62251416015625,0.034588657319545746,-0.0022569485008716583,0.04811246320605278
1790690965182552000,10.632552001953124,0.007819893769919872,-0.003678011242300272,0.029438646510243416
1790690965192590000,10.642590087890625,-0.0173680167645216,-0.00494434405118227,0.04632947966456413
1790690965202627800,10.6526279296875,-0.04624209180474281,-0.014434843324124813,0.027813591063022614
1790690965212666000,10.662666015625,-0.049977973103523254,-0.0220903679728508,0.05577544867992401
1790690965222703900,10.672703857421874,-0.05004778131842613,-0.03223748505115509,0.050827328115701675
1790690965232742100,10.6827421875,-0.05782021954655647,-0.024014711380004883,0.03635544329881668
1790690965242780000,10.69277978515625,-0.0695868656039238,-0.019516365602612495,0.01638892851769924
1790690965252818000,10.70281787109375,-0.08470642566680908,-0.025288501754403114,0.023308351635932922
1790690965262856000,10.71285595703125,-0.09794782102108002,-0.03978392481803894,0.008874168619513512
1790690965272894000,10.72289404296875,-0.13939513266086578,-0.045823175460100174,-0.024266473948955536
1790690965282932000,10.732931884765625,-0.15358713269233704,-0.03598358854651451,0.009801673702895641
1790690965292970000,10.742969970703125,-0.16160564124584198,-0.04320129007101059,0.018820470198988914
1790690965303008000,10.753008056640626,-0.14226102828979492,-0.07903502881526947,-0.0029746005311608315
1790690965313046000,10.7630458984375,-0.121744304895401,-0.058978766202926636,-0.016822505742311478
1790690965323083800,10.773083740234375,-0.10252974182367325,-0.02168172411620617,0.02615741454064846
1790690965333122000,10.7831220703125,-0.10083570331335068,-0.052998900413513184,0.04788694530725479
1790690965343159800,10.793159912109376,-0.0873778760433197,-0.17913036048412323,0.06925545632839203
1790690965353199000,10.80319921875,-0.022734705358743668,-0.06709357351064682,0.03418454900383949
1790690965363236900,10.81323681640625,-0.007153429556638002,0.001814061775803566,0.04308776557445526
1790690965373275100,10.823275146484375,-0.018048955127596855,-0.09391433000564575,-0.0021955580450594425
1790690965383313000,10.83331298828125,-0.05257964879274368,-0.0035087948199361563,0.02770744450390339
1790690965393351200,10.84335107421875,-0.057410091161727905,-0.0601278655230999,0.08983419835567474
1790690965403389000,10.853388916015625,-0.047104042023420334,-0.28780364990234375,0.13262297213077545
1790690965413427000,10.863427001953125,-0.0073947119526565075,-0.36258652806282043,0.1801619976758957
1790690965423465000,10.87346484375,0.03671945258975029,-0.4098774492740631,0.19689367711544037
1790690965433503000,10.8835029296875,0.05373332276940346,-0.3816298246383667,0.21067580580711365
1790690965443541000,10.893541015625,0.03854535147547722,-0.3146597743034363,0.06759017705917358
1790690965453579000,10.9035791015625,0.16204172372817993,-0.012389108538627625,-0.014943310990929604
1790690965463617000,10.913616943359376,0.1328621506690979,-0.1658710241317749,0.2062615305185318
1790690965473655000,10.923655029296874,-0.02136283554136753,-0.37224921584129333,0.03156428411602974
1790690965483692800,10.93369287109375,-0.12758861482143402,-0.34408050775527954,-0.17636491358280182
1790690965493731000,10.94373095703125,-0.17153263092041016,-0.08276687562465668,-0.1094125285744667
1790690965503768800,10.953768798828126,-0.013783026486635208,0.04061882197856903,-0.05216514691710472
1790690965513807000,10.96380712890625,0.05968639627099037,0.16310478746891022,-0.10299557447433472
1790690965523844900,10.973844970703125,0.07014474272727966,0.11652013659477234,-0.06161070242524147
1790690965533883100,10.983883056640625,0.07958059012889862,0.10766246169805527,-0.023481689393520355
1790690965543921000,10.9939208984375,0.039236895740032196,0.06919778883457184,-0.0024100416339933872
1790690965553959000,11.003958984375,-0.0076403324492275715,0.03627579286694527,0.011534802615642548
1790690965563998000,11.013998046875,-0.027156660333275795,0.023433391004800797,0.04757923632860184
1790690965574036000,11.024035888671875,-0.025691388174891472,-0.2095186412334442,0.0751861035823822
1790690965584074000,11.034073974609376,-0.006804975681006908,0.1721232682466507,-0.020096193999052048
1790690965594112000,11.044112060546874,-0.07297413796186447,0.12001558393239975,0.18913772702217102
1790690965604150000,11.05414990234375,-0.14161349833011627,0.02545217052102089,0.18235397338867188
1790690965614188000,11.06418798828125,-0.12903618812561035,-0.03797047585248947,0.0027176267467439175
1790690965624226000,11.07422607421875,-0.048152219504117966,-0.03182922303676605,-0.01026879996061325
1790690965634264000,11.08426416015625,0.02088889852166176,-0.029784714803099632,-0.033090490847826004
1790690965644301800,11.0943017578125,0.010522810742259026,-0.055683158338069916,-0.07379105687141418
1790690965654340000,11.104340087890625,-0.03536132350564003,-0.0470353364944458,-0.07585819810628891
1790690965664377900,11.1143779296875,-0.049644697457551956,-0.0414804145693779,-0.06092970818281174
1790690965674416000,11.124416015625,-0.05238988250494003,-0.03781457617878914,-0.06440380215644836
1790690965684454000,11.134453857421875,-0.026612842455506325,-0.02179986611008644,-0.03284529969096184
1790690965694492200,11.1444921875,-0.009894849732518196,-0.023027051240205765,-0.022234730422496796
1790690965704530000,11.154530029296875,-0.010681967251002789,-0.02358999103307724,-0.016272110864520073
1790690965714568000,11.16456787109375,-0.0058523244224488735,-0.010972201824188232,0.005588979460299015
1790690965724606000,11.17460595703125,-0.0012023370945826173,-0.021901605650782585,0.032066911458969116
1790690965734644000,11.18464404296875,-0.001993029611185193,-0.011911289766430855,0.0562707856297493
1790690965744682000,11.194681884765625,0.004781897179782391,-0.003648247802630067,0.07085778564214706
1790690965754720000,11.204719970703126,0.025224054232239723,-0.00880039855837822,0.07413453608751297
1790690965764757800,11.2147578125,0.0321381650865078,0.0005095400847494602,0.06407096236944199
1790690965774796000,11.224796142578125,0.021910294890403748,0.004477916285395622,0.051371943205595016
1790690965784833800,11.234833740234375,0.024249160662293434,0.01598873920738697,0.013203886337578297
1790690965794873000,11.244873046875,0.042052656412124634,0.013194283470511436,0.011073890142142773
1790690965804910800,11.254910888671875,0.05665108188986778,0.00260720681399107,0.010651296004652977
1790690965814949000,11.26494921875,0.05380336195230484,-0.003190494840964675,0.0007358145667240024
1790690965824987000,11.27498681640625,0.05480063706636429,0.002288476563990116,0.008859873749315739
1790690965835025200,11.285025146484376,0.05644407495856285,-0.03281491622328758,0.020783377811312675
1790690965845063000,11.29506298828125,0.04048968851566315,0.036362506449222565,0.03749276325106621
1790690965855101000,11.305100830078125,0.04640856385231018,0.027050763368606567,0.02624410390853882
1790690965865139000,11.315138916015625,0.05536956712603569,0.5643371343612671,0.5554115176200867
1790690965875177000,11.325177001953126,0.12078798562288284,0.1723773330450058,0.16547070443630219
1790690965885215000,11.335215087890624,0.1449422389268875,0.2610725164413452,-0.08413033932447433
1790690965895253000,11.3452529296875,0.015329656191170216,-0.3128032684326172,-0.020811550319194794
1790690965905291000,11.355291015625,0.005809017922729254,-0.08497995138168335,0.011470664292573929
1790690965915329000,11.3653291015625,0.003977295942604542,-0.00958666019141674,0.018355201929807663
1790690965925366800,11.37536669921875,-0.006987900473177433,0.018951766192913055,0.006724736653268337
1790690965935405000,11.385405029296875,0.010959675535559654,-0.007602346129715443,-0.009031855501234531
1790690965945442800,11.39544287109375,-0.030306916683912277,0.01246691681444645,-0.04888186976313591
1790690965955481000,11.405481201171876,-0.03993158042430878,-0.0032486626878380775,-0.017015548422932625
1790690965965518800,11.415518798828124,-0.031350914388895035,-0.015913378447294235,0.012065054848790169
1790690965975557000,11.42555712890625,-0.014655024744570255,-0.03597736731171608,0.0016995002515614033
1790690965985595000,11.435594970703125,-0.01289706863462925,-0.050238754600286484,-0.02075113356113434
1790690965995633000,11.4456328125,-0.011371344327926636,-0.027426380664110184,0.005556637421250343
1790690966005671000,11.4556708984375,0.0007813782431185246,-0.049157723784446716,0.011798374354839325
1790690966015710000,11.4657099609375,0.0006207895930856466,-0.04564288631081581,0.009278224781155586
1790690966025748700,11.475748779296875,-0.0046800049021840096,-0.027197087183594704,0.017631979659199715
1790690966035786800,11.485786865234376,0.023282919079065323,0.053781650960445404,0.0023337164893746376
1790690966045824800,11.49582470703125,0.03625810518860817,-0.027735844254493713,-0.0016138872597366571
1790690966055862800,11.50586279296875,0.026323184370994568,-0.013719094917178154,-0.014191729947924614
1790690966065900500,11.515900634765625,-0.02349870093166828,-0.004397232085466385,-0.04714861512184143
1790690966075938800,11.525938720703126,-0.036406245082616806,0.013044076040387154,-0.014906257390975952
1790690966085976600,11.5359765625,-0.030972329899668694,0.014900565147399902,-0.005753771401941776
1790690966096014800,11.546014892578125,-0.013125453144311905,0.024962151423096657,0.015671472996473312
1790690966106052600,11.556052490234375,0.01791182905435562,0.04048795625567436,0.05455556884407997
1790690966116090600,11.566090576171876,0.057297851890325546,0.05547063425183296,0.0690024197101593
1790690966126128600,11.576128662109374,0.06023108959197998,0.03518543764948845,0.06070362776517868
1790690966136166700,11.586166748046875,0.04506412148475647,0.01721629500389099,0.04943552985787392
1790690966146204700,11.59620458984375,0.016542945057153702,-0.008904371410608292,0.027985870838165283
1790690966156242700,11.60624267578125,-0.020667007192969322,-0.031181447207927704,0.011119806207716465
1790690966166280700,11.61628076171875,-0.04886708781123161,-0.0314362458884716,0.006391835864633322
1790690966176318700,11.626318603515625,-0.05308074131608009,-0.02702445536851883,0.008216900750994682
1790690966186356500,11.6363564453125,-0.04351931810379028,-0.011217107996344566,0.010473884642124176
1790690966196394800,11.646394775390625,-0.032693833112716675,0.004007118288427591,0.006646123714745045
1790690966206432500,11.6564326171875,-0.020875560119748116,0.0036292709410190582,0.009655793197453022
1790690966216470800,11.666470703125,-0.020810311660170555,-0.004877664148807526,0.012306436896324158
1790690966226508500,11.676508544921875,-0.033909644931554794,-0.016060441732406616,0.0009359407122246921
1790690966236546800,11.686546875,-0.05625356733798981,-0.04153277724981308,-0.005995734594762325
1790690966246585600,11.696585693359374,-0.06735864281654358,-0.05615656077861786,0.0116030965000391
1790690966256623900,11.706623779296875,-0.0739651471376419,-0.06195932626724243,0.030748294666409492
1790690966266661600,11.71666162109375,-0.08343398571014404,-0.062181442975997925,0.028186673298478127
1790690966276699600,11.72669970703125,-0.09207647293806076,-0.043895646929740906,0.03056327812373638
1790690966286737700,11.736737548828126,-0.0975135788321495,-0.026981158182024956,0.034311842173337936
1790690966296775700,11.746775634765624,-0.14023521542549133,-0.011614185757935047,0.024770798161625862
1790690966306813700,11.756813720703125,-0.25491389632225037,0.004679730627685785,-0.03556672856211662
1790690966316851700,11.766851806640625,-0.36807718873023987,-0.10871873050928116,-0.07184164971113205
1790690966326889700,11.7768896484375,-0.39978569746017456,-0.05242137610912323,0.0010592266917228699
1790690966336927700,11.786927734375,-0.4341316819190979,-0.05466802045702934,-0.03685539588332176
1790690966346965500,11.796965576171875,-0.5198777914047241,0.013862190768122673,-0.22987201809883118
1790690966357003800,11.807003662109375,-0.5535989999771118,0.16216351091861725,-0.2710215747356415
1790690966367041500,11.81704150390625,-0.4263070821762085,-0.17300669848918915,0.018409673124551773
1790690966377079800,11.827079833984374,-0.2948713004589081,-0.06825552135705948,0.07019270956516266
1790690966387117600,11.83711767578125,-0.19884958863258362,-0.005728331860154867,-0.03786783292889595
1790690966397155800,11.84715576171875,-0.09918638318777084,-0.005285182036459446,-0.014482616446912289
1790690966407193600,11.857193603515626,-0.06910079717636108,0.025230761617422104,-0.02464705891907215
1790690966417231600,11.867231689453124,-0.10556133836507797,0.05100670084357262,-0.07372193038463593
1790690966427269600,11.87726953125,-0.2110823690891266,0.029332390055060387,-0.0718470960855484
1790690966437307600,11.8873076171875,-0.18006347119808197,0.36075958609580994,-0.20877565443515778
1790690966447345700,11.897345703125,0.019986923784017563,1.1655349731445312,-0.43549036979675293
1790690966457383700,11.9073837890625,0.1206059455871582,1.5680516958236694,-0.5433334708213806
1790690966467421700,11.917421630859375,0.10984984785318375,-0.44384458661079407,0.17531241476535797
1790690966477459700,11.927459716796875,0.10779974609613419,-0.4848111867904663,0.41478466987609863
1790690966487498800,11.937498779296876,0.13412071764469147,0.06780283153057098,0.17736104130744934
1790690966497536800,11.947536865234374,0.1538962870836258,0.3167620599269867,-0.09467554092407227
1790690966507574500,11.957574462890625,0.09508292376995087,0.5662721395492554,-0.1821991503238678
1790690966517612800,11.96761279296875,0.022199131548404694,-0.2877996563911438,0.0986945703625679
1790690966527650600,11.977650634765626,0.023809494450688362,0.07561174035072327,0.06300206482410431
1790690966537688800,11.987688720703124,0.030367529019713402,0.04331398755311966,-0.061283137649297714
1790690966547726600,11.9977265625,0.037905849516391754,-0.03211594000458717,-0.0471356175839901
1790690966557764900,12.007764892578125,0.04424337297677994,-0.034230224788188934,0.012125305831432343
1790690966567802600,12.017802734375,0.10656905919313431,-0.04562370851635933,-0.003009866224601865
1790690966577840600,12.027840576171876,0.2014753222465515,-0.03677668794989586,-0.008428067900240421
1790690966587878700,12.037878662109375,0.3366667628288269,0.0005714865401387215,-0.04009656980633736
1790690966597916700,12.047916748046875,0.41816186904907227,0.019211217761039734,-0.11527734249830246
1790690966607954700,12.05795458984375,0.47614020109176636,-0.22074280679225922,-0.053501006215810776
1790690966617992700,12.06799267578125,0.5010833144187927,0.011684054508805275,-0.035688452422618866
1790690966628030500,12.078030517578124,0.5002365708351135,0.3508283495903015,-0.02605125680565834
1790690966638068700,12.08806884765625,0.5022140145301819,-0.09111736714839935,0.008779427967965603
1790690966648106500,12.0981064453125,0.43261095881462097,0.06835606694221497,-0.051257889717817307
1790690966658144800,12.108144775390626,0.29959991574287415,0.03167209029197693,-0.07609213143587112
1790690966668182500,12.1181826171875,0.1018429771065712,0.043504513800144196,-0.03972825035452843
1790690966678220800,12.128220703125,-0.01922778971493244,0.0362604483962059,0.025819335132837296
1790690966688258600,12.138258544921875,-0.01666879467666149,0.007989343255758286,0.03510413318872452
1790690966698296600,12.148296630859376,0.016578374430537224,0.0034779482521116734,0.03505672886967659
1790690966708334600,12.15833447265625,0.04476382955908775,-0.0019495172891765833,0.039740972220897675
1790690966718372600,12.16837255859375,0.06497162580490112,-0.008741643279790878,-0.0008844838012009859
1790690966728411600,12.17841162109375,0.05448596179485321,-0.017040960490703583,-0.05224202945828438
1790690966738449700,12.18844970703125,0.02259168028831482,-0.023419765755534172,-0.053956303745508194
1790690966748487700,12.19848779296875,0.0014840704388916492,-0.03621279075741768,-0.048081886023283005
1790690966758525700,12.208525634765625,-0.016356712207198143,-0.03417734056711197,-0.06393329054117203
1790690966768563700,12.218563720703125,-0.027317676693201065,-0.044741567224264145,-0.06449945271015167
1790690966778601700,12.228601806640626,-0.03725259751081467,-0.034868430346250534,-0.04916417598724365
1790690966788639500,12.238639404296874,-0.03838934749364853,-0.04465506970882416,-0.02513773739337921
1790690966798677800,12.248677734375,-0.029811039566993713,-0.053183041512966156,-0.03089921921491623
1790690966808715500,12.258715576171875,-0.015775978565216064,-0.05388285964727402,-0.042230214923620224
1790690966818753800,12.26875390625,-0.020580589771270752,-0.03940751403570175,-0.0018316581845283508
