time,seconds_elapsed,z,y,x
1790690954596164900,0.046164794921875,0.0708126574754715,0.24937839806079865,0.25744113326072693
1790690954606203000,0.056202880859375,0.000041278995922766626,0.28158026933670044,0.1378239095211029
1790690954616241000,0.066240966796875,-0.11594977229833603,0.23555739223957062,0.030659109354019165
1790690954626280000,0.076280029296875,-0.16960714757442474,0.12291873246431351,-0.06385807693004608
1790690954636318000,0.08631787109375,-0.14402881264686584,0.03425304591655731,-0.11939243972301483
1790690954646356000,0.09635595703125,-0.09687621146440506,0.0004338289436418563,-0.15831507742404938
1790690954656394000,0.10639404296875,-0.03380297124385834,0.02136068232357502,-0.19355641305446625
1790690954666432000,0.116431884765625,-0.03549594059586525,0.004406732507050037,-0.22972986102104187
1790690954676469800,0.1264697265625,-0.047383226454257965,0.02617487870156765,-0.275000661611557
1790690954686508000,0.136508056640625,-0.06474251300096512,0.23382075130939484,-0.28126177191734314
1790690954696545800,0.1465458984375,-0.07273492217063904,0.4106791317462921,-0.29943037033081055
1790690954706584000,0.156583984375,-0.06703975051641464,0.4868314266204834,-0.2929788827896118
1790690954716621800,0.166621826171875,-0.01734144054353237,0.5426635146141052,-0.2779328227043152
1790690954726660000,0.17666015625,0.042337335646152496,0.5140987634658813,-0.21459192037582397
1790690954736697900,0.18669775390625,0.10305474698543549,0.4945191740989685,-0.13168692588806152
1790690954746735900,0.19673583984375,0.1528388112783432,0.5470742583274841,-0.03994262218475342
1790690954756774000,0.20677392578125,0.15983706712722778,0.6557661294937134,0.04478824511170387
1790690954766812000,0.21681201171875,0.14123542606830597,0.7763633728027344,0.12003666162490845
1790690954776850000,0.226849853515625,0.1268085390329361,0.8656389117240906,0.18614989519119263
1790690954786888000,0.236887939453125,0.10905192047357559,0.8799286484718323,0.24535143375396729
1790690954796925700,0.24692578125,0.10301320254802704,0.8739290833473206,0.3004210889339447
1790690954806964000,0.2569638671875,0.09882431477308273,0.8330618143081665,0.36303678154945374
1790690954817003000,0.2670029296875,0.08817566186189651,0.7691243886947632,0.42932552099227905
1790690954827041000,0.277041015625,0.08582675457000732,0.6903637647628784,0.48802825808525085
1790690954837078800,0.287078857421875,0.09463329613208771,0.5423791408538818,0.4891883432865143
1790690954847117000,0.297116943359375,0.11764620244503021,0.398540735244751,0.41301101446151733
1790690954857154800,0.30715478515625,0.12508894503116608,0.28935831785202026,0.32131171226501465
1790690954867193000,0.317193115234375,0.11622274667024612,0.16736076772212982,0.25187963247299194
1790690954877230800,0.32723095703125,0.12679442763328552,0.06938892602920532,0.21146750450134277
1790690954887269000,0.33726904296875,0.13732190430164337,0.011201255023479462,0.20339679718017578
1790690954897307000,0.347306884765625,0.1411541998386383,-0.03556731343269348,0.22104103863239288
1790690954907345000,0.357344970703125,0.12418719381093979,-0.07671821117401123,0.26336532831192017
1790690954917383000,0.3673828125,0.11688347905874252,-0.08940418064594269,0.33844807744026184
1790690954927421000,0.3774208984375,0.13445208966732025,-0.02690698206424713,0.46277695894241333
1790690954937459000,0.387458984375,0.1601550430059433,0.11248712986707687,0.6394004821777344
1790690954947497000,0.3974970703125,0.2377568930387497,0.27411383390426636,0.8766697645187378
1790690954957534700,0.40753466796875,0.34260448813438416,0.43538716435432434,1.1843271255493164
1790690954967573000,0.417572998046875,0.45397281646728516,0.605512261390686,1.5193957090377808
1790690954977610800,0.42761083984375,0.5590127110481262,0.7834566831588745,1.8305935859680176
1790690954987649000,0.43764892578125,0.6352083683013916,0.9714908003807068,2.091841220855713
1790690954997686800,0.447686767578125,0.7883369326591492,1.0469403266906738,2.2418556213378906
1790690955007726000,0.45772607421875,0.9263272881507874,0.9670163989067078,2.2774784564971924
1790690955017764000,0.46776416015625,0.8752763867378235,0.8255839347839355,2.298354148864746
1790690955027802000,0.477802001953125,0.8175691366195679,0.49671655893325806,2.2068581581115723
1790690955037840100,0.487840087890625,0.664688766002655,-0.22746405005455017,1.9956042766571045
1790690955047878100,0.497878173828125,0.4326627254486084,-0.8874611258506775,1.7672502994537354
1790690955057916000,0.507916015625,0.1998036652803421,-1.3626474142074585,1.5421239137649536
1790690955067954200,0.5179541015625,-0.034565698355436325,-1.6028200387954712,1.325927972793579
1790690955077992000,0.527991943359375,-0.2524053454399109,-1.65909743309021,1.119934320449829
1790690955088030200,0.5380302734375,-0.4481591284275055,-1.5157921314239502,0.8859713673591614
1790690955098068000,0.54806787109375,-0.5804484486579895,-1.2856087684631348,0.6544417142868042
1790690955108106200,0.558106201171875,-0.6597430109977722,-1.0235185623168945,0.4637466371059418
1790690955118144000,0.56814404296875,-0.7095031142234802,-0.7287564277648926,0.3181611895561218
1790690955128182000,0.57818212890625,-0.713619589805603,-0.4708854854106903,0.23232485353946686
1790690955138220000,0.588219970703125,-0.6644278168678284,-0.2029360681772232,0.2013501524925232
1790690955148258000,0.598258056640625,-0.6164725422859192,-0.02081633172929287,0.25661394000053406
1790690955158296000,0.608296142578125,-0.5495486259460449,0.12904399633407593,0.3671092987060547
1790690955168334000,0.618333984375,-0.47920680046081543,0.15452805161476135,0.5399801135063171
1790690955178372000,0.6283720703125,-0.4035511910915375,0.07432589679956436,0.7604390382766724
1790690955188410000,0.63841015625,-0.33850401639938354,-0.09151500463485718,1.0139516592025757
1790690955198449200,0.64844921875,-0.2960047721862793,-0.30229514837265015,1.282228708267212
1790690955208487000,0.65848681640625,-0.2924662232398987,-0.49684518575668335,1.5206823348999023
1790690955218525000,0.66852490234375,-0.311348021030426,-0.6061184406280518,1.6899226903915405
1790690955228563000,0.67856298828125,-0.2999640703201294,-0.6890439391136169,1.785457730293274
1790690955238601000,0.68860107421875,-0.25575533509254456,-0.7787149548530579,1.839695692062378
1790690955248639200,0.69863916015625,-0.1750202775001526,-0.8308370113372803,1.855745792388916
1790690955258677000,0.708677001953125,-0.07011863589286804,-0.8683977127075195,1.8712542057037354
1790690955268715300,0.71871533203125,0.005255748517811298,-0.8704150319099426,1.904485821723938
1790690955278753000,0.7287529296875,0.047682568430900574,-0.8486540913581848,1.9541367292404175
1790690955288791000,0.738791015625,0.053526341915130615,-0.8278174996376038,2.0130155086517334
1790690955298829000,0.7488291015625,0.03441842645406723,-0.8340216279029846,2.095090389251709
1790690955308867000,0.7588671875,-0.008452607318758965,-0.8554595112800598,2.189251661300659
1790690955318905000,0.768905029296875,-0.05209542438387871,-0.8690565824508667,2.2764968872070312
1790690955328943000,0.778943115234375,-0.10045070946216583,-0.8549157381057739,2.3395040035247803
1790690955338980900,0.78898095703125,-0.10698077827692032,-0.8316559195518494,2.3348917961120605
1790690955349019100,0.79901904296875,-0.08431807905435562,-0.8670032620429993,2.2786781787872314
1790690955359057000,0.809056884765625,-0.033010415732860565,-0.9604032635688782,2.182500123977661
1790690955369095200,0.81909521484375,0.0034677020739763975,-1.0678354501724243,2.0575528144836426
1790690955379133000,0.8291328125,0.03237205371260643,-1.1614503860473633,1.920815348625183
1790690955389172000,0.839171875,0.06762485206127167,-1.2757785320281982,1.8098320960998535
1790690955399210000,0.8492099609375,0.08896183222532272,-1.382935881614685,1.7457596063613892
1790690955409248000,0.859248046875,0.07859095185995102,-1.4504179954528809,1.7079081535339355
1790690955419286000,0.8692861328125,0.058465439826250076,-1.5135303735733032,1.657315969467163
1790690955429324000,0.879323974609375,0.07218924164772034,-1.6367942094802856,1.5821582078933716
1790690955439362000,0.889362060546875,0.12195120751857758,-1.823858380317688,1.4843242168426514
1790690955449400000,0.899400146484375,0.168955460190773,-2.0147337913513184,1.3535428047180176
1790690955459438000,0.90943798828125,0.2707982063293457,-2.184687376022339,1.2245984077453613
1790690955469476000,0.91947607421875,0.39711007475852966,-2.2600860595703125,1.1109198331832886
1790690955479514000,0.92951416015625,0.4912871718406677,-2.200225353240967,1.0408035516738892
1790690955489552100,0.93955224609375,0.5781927704811096,-1.958724856376648,1.0189461708068848
1790690955499590000,0.94958984375,0.6439393162727356,-1.5756701231002808,1.0134774446487427
1790690955509628200,0.959628173828125,0.7287353873252869,-0.9962707161903381,0.9415555596351624
1790690955519666000,0.969666015625,0.6969862580299377,-0.3231295943260193,0.7945849895477295
1790690955529704200,0.9797041015625,0.6095208525657654,0.19546855986118317,0.5795616507530212
1790690955539742000,0.989741943359375,0.5118297338485718,0.5615592002868652,0.30003491044044495
1790690955549780200,0.9997802734375,0.39942115545272827,0.693074107170105,0.017642110586166382
1790690955559818000,1.00981787109375,0.24780873954296112,0.5784111618995667,-0.2156396210193634
1790690955569856000,1.01985595703125,0.09559550136327744,0.39551830291748047,-0.40550729632377625
1790690955579895000,1.02989501953125,0.002502572489902377,0.21988601982593536,-0.5588763356208801
1790690955589932800,1.039932861328125,-0.11051879078149796,0.0982394814491272,-0.6984398365020752
1790690955599971000,1.04997119140625,-0.21355143189430237,0.0051721250638365746,-0.8500019311904907
1790690955610008800,1.0600087890625,-0.28564372658729553,-0.14363066852092743,-0.9713749289512634
1790690955620047000,1.070047119140625,-0.3032597303390503,-0.38706862926483154,-1.037988305091858
1790690955630084900,1.0800849609375,-0.25299152731895447,-0.5899176001548767,-1.0617234706878662
1790690955640123100,1.090123046875,-0.1769803762435913,-0.7483373284339905,-1.0155171155929565
1790690955650161200,1.1001611328125,-0.11668507009744644,-0.8034780621528625,-0.9264090657234192
1790690955660199000,1.110198974609375,-0.05746755376458168,-0.7570672035217285,-0.8145112991333008
1790690955670237200,1.1202373046875,0.016709204763174057,-0.6670757532119751,-0.6738841533660889
1790690955680275000,1.13027490234375,0.10736028105020523,-0.5853832960128784,-0.47106418013572693
1790690955690313200,1.140313232421875,0.18478050827980042,-0.492130845785141,-0.21249336004257202
1790690955700351000,1.15035107421875,0.25549381971359253,-0.3606889545917511,0.07478715479373932
1790690955710389200,1.16038916015625,0.3169635832309723,-0.19383898377418518,0.3174362778663635
1790690955720427000,1.170427001953125,0.33576416969299316,-0.061113420873880386,0.4411776661872864
1790690955730465000,1.180465087890625,0.34514275193214417,-0.022599851712584496,0.44602009654045105
1790690955740503000,1.1905029296875,0.3932330310344696,-0.07137618213891983,0.363347589969635
1790690955750541000,1.200541015625,0.4781804382801056,-0.19820736348628998,0.26842638850212097
1790690955760579000,1.2105791015625,0.6072020530700684,-0.38161447644233704,0.1984606236219406
1790690955770617900,1.220617919921875,0.8302319645881653,-0.5858464241027832,0.17209559679031372
1790690955780656000,1.23065625,1.1733131408691406,-0.6956006288528442,0.20895588397979736
1790690955790694000,1.24069384765625,1.3446191549301147,-0.7057288885116577,0.2984098494052887
1790690955800732200,1.250732177734375,1.3567143678665161,-0.5571194291114807,0.3525146543979645
1790690955810770000,1.26077001953125,1.253231406211853,-0.34867730736732483,0.33722835779190063
1790690955820808000,1.270807861328125,1.1342411041259766,-0.25978177785873413,0.31082525849342346
1790690955830846000,1.280845947265625,1.0555665493011475,-0.43984103202819824,0.35118547081947327
1790690955840884000,1.290884033203125,0.9432011246681213,-0.7102722525596619,0.4570208191871643
1790690955850922000,1.300921875,0.8149195909500122,-0.9277520775794983,0.5832493305206299
1790690955860960000,1.3109599609375,0.7102890014648438,-1.0450822114944458,0.6682952642440796
1790690955870998300,1.320998291015625,0.6661452651023865,-1.1135598421096802,0.6986278295516968
1790690955881036000,1.3310361328125,0.7138369083404541,-0.9101834893226624,0.6052363514900208
1790690955891074000,1.341073974609375,0.8089559674263,-0.7088541388511658,0.5095103979110718
1790690955901112000,1.351112060546875,0.8833318948745728,-0.49944841861724854,0.45013439655303955
1790690955911150000,1.361150146484375,0.9323663115501404,-0.32371068000793457,0.452187716960907
1790690955921188000,1.37118798828125,0.9637817740440369,-0.25104179978370667,0.5283554196357727
1790690955931226000,1.38122607421875,0.9547373652458191,-0.29385507106781006,0.6621885895729065
1790690955941264000,1.391263916015625,0.9114879369735718,-0.43244171142578125,0.8399852514266968
1790690955951302100,1.40130224609375,0.8728105425834656,-0.5715758800506592,1.0361320972442627
1790690955961340000,1.41133984375,0.8389902710914612,-0.6526422500610352,1.2498526573181152
1790690955971379000,1.42137890625,0.8002175688743591,-0.6884074211120605,1.4571802616119385
1790690955981417000,1.4314169921875,0.7264706492424011,-0.6512573957443237,1.6475023031234741
1790690955991455000,1.441455078125,0.6291846036911011,-0.5170303583145142,1.7952840328216553
1790690956001493000,1.451492919921875,0.5407561659812927,-0.32264649868011475,1.8887958526611328
1790690956011531000,1.461531005859375,0.4446309804916382,-0.07067310065031052,1.9235926866531372
1790690956021569500,1.471569580078125,0.32780396938323975,0.22340352833271027,1.9134005308151245
1790690956031607300,1.481607177734375,0.2188175618648529,0.5263718962669373,1.8885825872421265
1790690956041645300,1.491645263671875,0.14678332209587097,0.7663245797157288,1.8757250308990479
1790690956051683300,1.501683349609375,0.10930944979190826,0.9676513075828552,1.865828514099121
1790690956061721300,1.511721435546875,0.09481332451105118,1.1193175315856934,1.8530069589614868
1790690956071759400,1.52175927734375,0.06768637150526047,1.1088526248931885,1.8632196187973022
1790690956081797400,1.53179736328125,0.08164026588201523,1.0992764234542847,1.8088464736938477
1790690956091835400,1.54183544921875,0.17922061681747437,0.937553882598877,1.6776471138000488
1790690956101873400,1.551873291015625,0.27645981311798096,0.6777516007423401,1.475824236869812
1790690956111911400,1.561911376953125,0.30649709701538086,0.5460625290870667,1.1814336776733398
1790690956121949400,1.571949462890625,0.254861056804657,0.5405402183532715,0.8396075963973999
1790690956131987500,1.581987548828125,0.13664120435714722,0.6024616360664368,0.49987879395484924
1790690956142025500,1.592025390625,-0.025290176272392273,0.6332091689109802,0.1568756401538849
1790690956152064300,1.602064208984375,-0.22092652320861816,0.5515036582946777,-0.1619710624217987
1790690956162102500,1.6121025390625,-0.39466261863708496,0.3992089033126831,-0.45210275053977966
1790690956172140300,1.622140380859375,-0.553799569606781,0.2287631332874298,-0.705246090888977
1790690956182178600,1.632178466796875,-0.7305410504341125,0.049074869602918625,-0.8762590885162354
1790690956192216300,1.64221630859375,-0.8845670819282532,-0.06793031096458435,-0.9080170392990112
1790690956202254300,1.65225439453125,-1.005265235900879,-0.09584689885377884,-0.7780672907829285
1790690956212292400,1.662292236328125,-1.0859191417694092,-0.06633028388023376,-0.5222426652908325
1790690956222330400,1.672330322265625,-1.0840061902999878,0.004830974154174328,-0.20222526788711548
1790690956232368400,1.682368408203125,-0.9511447548866272,0.2418895959854126,-0.0017116136150434613
1790690956242406400,1.692406494140625,-0.6437358260154724,1.276194453239441,-0.31139835715293884
1790690956252444400,1.7024443359375,-0.31837984919548035,1.392819881439209,-0.14676494896411896
1790690956262482400,1.712482421875,0.11996235698461533,1.383770227432251,0.028599420562386513
1790690956272520200,1.722520263671875,0.576442539691925,1.3594950437545776,0.25983503460884094
1790690956282558500,1.732558349609375,0.2901335656642914,1.7561451196670532,0.42025506496429443
1790690956292596200,1.74259619140625,-0.2807941138744354,2.183197021484375,0.4158635139465332
1790690956302634500,1.752634521484375,-0.48255521059036255,2.581613779067993,0.3486541211605072
1790690956312672300,1.76267236328125,-0.5665683150291443,2.846142530441284,0.22433483600616455
1790690956322710500,1.77271044921875,-0.5730888247489929,2.5188217163085938,0.11702995002269745
1790690956332748300,1.782748291015625,-0.45581918954849243,1.7459793090820312,-0.11321630328893661
1790690956342786300,1.792786376953125,-0.5421964526176453,1.1697242259979248,-0.39650341868400574
1790690956352825300,1.802825439453125,-0.8076171875,0.5789978504180908,-0.6347620487213135
1790690956362863400,1.81286328125,-0.672448992729187,-0.13482998311519623,-0.857450008392334
1790690956372901400,1.8229013671875,-0.5327211618423462,-0.5599067211151123,-0.9412567019462585
1790690956382939400,1.832939453125,-0.6231751441955566,-0.680237889289856,-0.9389312863349915
1790690956392977400,1.842977294921875,-0.6837306618690491,-0.6155864596366882,-0.9538697004318237
1790690956403015400,1.853015380859375,-0.6122593879699707,-0.7240256071090698,-0.9622538685798645
1790690956413053400,1.863053466796875,-0.6015676259994507,-0.9824829697608948,-1.0330532789230347
1790690956423091500,1.873091552734375,-0.39650046825408936,-1.2592123746871948,-1.053068995475769
1790690956433129200,1.883129150390625,-0.22469462454319,-0.8519044518470764,-0.9035290479660034
1790690956443167500,1.89316748046875,-0.016476178541779518,-0.028922727331519127,-0.32576078176498413
1790690956453205200,1.903205322265625,0.15012851357460022,0.13069063425064087,0.15386679768562317
1790690956463243500,1.913243408203125,0.2960987687110901,-0.07016497105360031,0.32895925641059875
1790690956473281300,1.92328125,0.34494540095329285,-0.2353222370147705,0.35571417212486267
1790690956483319600,1.933319580078125,0.2750677764415741,-0.3126140832901001,0.3767017424106598
1790690956493357300,1.943357421875,-0.1283246874809265,0.16210448741912842,0.3834986686706543
1790690956503395300,1.953395263671875,-0.2872062027454376,0.013112073764204979,0.2100009024143219
1790690956513433300,1.963433349609375,-0.3078465163707733,-0.4648292064666748,0.05110606178641319
1790690956523471400,1.973471435546875,-0.547533392906189,-0.040758613497018814,0.07564841955900192
1790690956533510400,1.983510498046875,-0.7995043992996216,0.8018258810043335,0.2187347412109375
1790690956543548400,1.99354833984375,-0.83175128698349,0.45357680320739746,0.20215390622615814
1790690956553586400,2.00358642578125,-0.8768596053123474,0.7862336039543152,0.145212322473526
1790690956563624400,2.01362451171875,-0.8613813519477844,1.2163727283477783,0.13224485516548157
1790690956573662500,2.023662353515625,-0.8936511278152466,1.1454516649246216,0.006738596595823765
1790690956583700500,2.033700439453125,-0.9094426035881042,0.9347607493400574,-0.22233213484287262
1790690956593738200,2.04373828125,-0.9214257597923279,0.6476773023605347,-0.40580955147743225
1790690956603776500,2.053776611328125,-0.8893464207649231,0.4944368898868561,-0.5599011182785034
1790690956613814300,2.063814208984375,-0.8508320450782776,0.47133955359458923,-0.6860220432281494
1790690956623852500,2.0738525390625,-0.8296121954917908,0.43907830119132996,-0.7682910561561584
1790690956633890300,2.083890380859375,-0.8158705830574036,0.122956283390522,-0.8605445623397827
1790690956643928300,2.09392822265625,-0.86342453956604,-0.6025764346122742,-1.1642810106277466
1790690956653966300,2.10396630859375,-0.7977808117866516,-1.0789304971694946,-1.372571349143982
1790690956664004400,2.11400439453125,-0.8156042695045471,-1.1887000799179077,-1.531338095664978
1790690956674042400,2.12404248046875,-0.8231418132781982,0.09970875084400177,-1.1421453952789307
1790690956684080400,2.134080322265625,-0.8600100874900818,0.46559831500053406,-0.8097264170646667
1790690956694118400,2.144118408203125,-0.8889234662055969,-0.036132171750068665,-0.8591173887252808
1790690956704156400,2.154156494140625,-0.8250520825386047,-0.6031423211097717,-1.0013210773468018
1790690956714194200,2.164194091796875,-0.6722462773323059,-1.0462790727615356,-1.1276081800460815
1790690956724233500,2.1742333984375,-0.6047176122665405,-1.0951054096221924,-1.1875154972076416
1790690956734271200,2.184271240234375,-0.5667595863342285,-1.2291157245635986,-1.174700379371643
1790690956744309500,2.1943095703125,-0.39285993576049805,-1.4655418395996094,-1.1294220685958862
1790690956754347300,2.20434716796875,-0.3570830225944519,0.9512904286384583,0.2517307698726654
1790690956764385500,2.214385498046875,-0.026865169405937195,-0.3456583321094513,0.23543542623519897
1790690956774423300,2.22442333984375,0.15146967768669128,-0.08477800339460373,0.24285206198692322
1790690956784461600,2.234461669921875,0.27335458993911743,0.07046138495206833,0.4965897798538208
1790690956794499300,2.244499267578125,0.5214647650718689,-0.4196026027202606,0.3153417110443115
1790690956804537300,2.254537353515625,0.5047811269760132,-0.010742925107479095,0.49216362833976746
1790690956814575400,2.264575439453125,0.636296272277832,-0.7876008749008179,0.3138812184333801
1790690956824613400,2.27461328125,0.6387751698493958,-0.20762456953525543,0.2523254454135895
1790690956834651400,2.2846513671875,0.6400348544120789,0.13578632473945618,0.4107358753681183
1790690956844689400,2.294689453125,0.6757811307907104,-0.07309658080339432,0.21046322584152222
1790690956854727400,2.3047275390625,0.6661269068717957,-0.7069858908653259,0.011320564895868301
1790690956864765400,2.314765380859375,0.5426377058029175,-0.250074565410614,0.24995097517967224
1790690956874803200,2.32480322265625,0.598713219165802,-0.6572191715240479,0.11855221539735794
1790690956884841500,2.334841552734375,0.6418948173522949,-0.6214196085929871,0.08265572786331177
1790690956894879200,2.344879150390625,0.6633103489875793,-0.44518333673477173,0.32410216331481934
1790690956904917500,2.35491748046875,0.7239491939544678,-0.5710365772247314,0.26694968342781067
1790690956914956300,2.364956298828125,0.815687358379364,-0.6727011799812317,0.15899550914764404
1790690956924994600,2.37499462890625,0.9507362246513367,-0.9211461544036865,0.03081277385354042
1790690956935032300,2.3850322265625,0.982088029384613,-0.627179741859436,0.19658735394477844
1790690956945070600,2.395070556640625,1.0047634840011597,-0.4087459444999695,0.3726569414138794
1790690956955108400,2.4051083984375,1.0381872653961182,-0.323976993560791,0.3208898603916168
1790690956965146400,2.415146484375,1.0881366729736328,-0.48418185114860535,0.19212043285369873
1790690956975184400,2.425184326171875,1.1379088163375854,-0.5652276873588562,0.0397665873169899
1790690956985222400,2.435222412109375,1.000401258468628,-0.0472511351108551,0.2262832075357437
1790690956995260400,2.445260498046875,0.8672900795936584,0.31169238686561584,0.43123048543930054
1790690957005298400,2.45529833984375,0.9518505334854126,-0.02695864625275135,0.2516591250896454
1790690957015335700,2.465335693359375,0.9388007521629333,-0.43370217084884644,-0.014945926144719124
1790690957025374000,2.4753740234375,0.8499241471290588,-0.4691488444805145,-0.01423406321555376
1790690957035411700,2.48541162109375,0.5798287391662598,-0.253665566444397,0.3097807466983795
1790690957045450000,2.495449951171875,0.5532898306846619,-0.6100833415985107,0.055267781019210815
1790690957055487700,2.50548779296875,0.37243402004241943,-0.5810934901237488,-0.06983473896980286
1790690957065526000,2.515526123046875,0.3363551199436188,-0.3194994330406189,0.037530332803726196
1790690957075564000,2.52556396484375,0.3285216987133026,-0.46656423807144165,-0.097142793238163
1790690957085601800,2.535601806640625,0.2055630087852478,-0.21967670321464539,-0.10046003013849258
1790690957095640800,2.545640869140625,-0.004166781902313232,0.19636738300323486,-0.03385809808969498
1790690957105678800,2.555678955078125,-0.15541115403175354,0.4474930763244629,-0.09656515717506409
1790690957115716900,2.565716796875,-0.32442760467529297,0.8119410872459412,-0.04115808755159378
1790690957125755000,2.5757548828125,-0.48656725883483887,1.0215688943862915,0.006137521006166935
1790690957135793000,2.58579296875,-0.6197532415390015,0.9614384174346924,-0.09833242744207382
1790690957145831000,2.595830810546875,-0.7040660381317139,0.8758441805839539,-0.18416690826416016
1790690957155869000,2.605868896484375,-0.7429790496826172,0.9412833452224731,-0.06821899861097336
1790690957165907000,2.615906982421875,-0.7721081972122192,0.5746750235557556,-0.19902175664901733
1790690957175944700,2.62594482421875,-0.810308575630188,0.34569215774536133,-0.23650920391082764
1790690957185983000,2.63598291015625,-0.8175499439239502,0.4594850242137909,-0.07950787246227264
1790690957196020700,2.646020751953125,-0.765402615070343,0.9384207129478455,0.19959940016269684
1790690957206059000,2.65605908203125,-0.7554793953895569,0.5867577791213989,-0.1597750186920166
1790690957216096800,2.6660966796875,-0.7469791173934937,0.5618545413017273,-0.30943241715431213
1790690957226135000,2.676135009765625,-0.7433454990386963,0.9130972623825073,-0.0946412906050682
1790690957236172800,2.6861728515625,-0.7247062921524048,0.962955892086029,-0.1636027842760086
1790690957246210800,2.6962109375,-0.5675923228263855,0.7307586073875427,-0.11113211512565613
1790690957256248800,2.706248779296875,-0.24777038395404816,-0.0036557212006300688,0.08926356583833694
1790690957266286800,2.716286865234375,-0.0430460050702095,-0.25830984115600586,-0.04348941892385483
1790690957276326000,2.726325927734375,0.056783389300107956,-0.03453187644481659,-0.015004782006144524
1790690957286364000,2.736364013671875,0.046657782047986984,-0.09699791669845581,0.0013989584986120462
1790690957296402000,2.74640185546875,0.025061678141355515,-0.15764209628105164,-0.030074546113610268
1790690957306440000,2.75643994140625,-0.06396406888961792,-0.1771388202905655,0.03404638543725014
1790690957316478000,2.76647802734375,-0.17523972690105438,-0.1924418807029724,0.06245379149913788
1790690957326516000,2.776515869140625,-0.2525544762611389,-0.2414216697216034,0.0621483251452446
1790690957336553700,2.7865537109375,-0.31656596064567566,-0.286952406167984,0.04477759078145027
1790690957346592000,2.796592041015625,-0.37100285291671753,-0.20793668925762177,0.05937917158007622
1790690957356629800,2.806629638671875,-0.42034509778022766,-0.08163280785083771,0.09664664417505264
1790690957366668000,2.81666796875,-0.457119882106781,-0.04289340600371361,0.09218132495880127
1790690957376705800,2.826705810546875,-0.49746277928352356,-0.14774419367313385,0.0594920888543129
1790690957386743800,2.836743896484375,-0.5350455641746521,-0.258746862411499,0.015784556046128273
1790690957396781800,2.84678173828125,-0.5530411005020142,-0.2864208519458771,-0.007246194873005152
1790690957406819800,2.85681982421875,-0.5421146750450134,-0.1783130168914795,-0.021273063495755196
1790690957416857900,2.86685791015625,-0.493547648191452,-0.0008948221220634878,-0.022225411608815193
1790690957426896000,2.876895751953125,-0.4360460340976715,0.11911839991807938,-0.05464114248752594
1790690957436934000,2.886933837890625,-0.3627108335494995,0.19777992367744446,-0.11927659064531326
1790690957446972000,2.896971923828125,-0.28296592831611633,0.3116375207901001,-0.19593675434589386
1790690957457011000,2.907010986328125,-0.19604887068271637,0.4390966594219208,-0.24798184633255005
1790690957467049000,2.917049072265625,-0.12223323434591293,0.6084689497947693,-0.27032390236854553
1790690957477087000,2.9270869140625,-0.06779848784208298,0.8246712684631348,-0.27353060245513916
1790690957487125000,2.937125,-0.001139566651545465,0.806273341178894,-0.2285037487745285
1790690957497162800,2.947162841796875,0.09782136976718903,0.014299577102065086,-0.18792515993118286
1790690957507201000,2.957200927734375,0.09607060253620148,-0.3272005021572113,-0.13226856291294098
1790690957517238800,2.96723876953125,0.09703759849071503,-0.1782861202955246,-0.08235985040664673
1790690957527277000,2.977277099609375,0.09128117561340332,0.10184167325496674,-0.12025850266218185
1790690957537314800,2.987314697265625,0.05160673335194588,0.15262310206890106,-0.19745661318302155
1790690957547352800,2.997352783203125,-0.013823670335114002,-0.02581588365137577,-0.20386870205402374
1790690957557390800,3.007390869140625,-0.08928833156824112,-0.01486443355679512,-0.11313880234956741
1790690957567428900,3.017428955078125,-0.16686780750751495,0.1390036940574646,0.01629668101668358
1790690957577467000,3.027466796875,-0.24826493859291077,0.30137741565704346,0.04230005294084549
1790690957587505000,3.0375048828125,-0.3428838551044464,0.4808129668235779,-0.011384480632841587
1790690957597543000,3.04754296875,-0.4018435776233673,0.497058242559433,-0.01968342438340187
1790690957607581000,3.057580810546875,-0.36470338702201843,0.15952786803245544,0.010075004771351814
1790690957617618700,3.06761865234375,-0.318819522857666,0.04891880601644516,0.04157247766852379
1790690957627658000,3.077657958984375,-0.2181251347064972,0.1595286726951599,0.08743663877248764
1790690957637695700,3.08769580078125,-0.1348118782043457,0.2890927791595459,0.07026990503072739
1790690957647734000,3.097734130859375,-0.07753527164459229,0.33284372091293335,-0.0005278385360725224
1790690957657771800,3.107771728515625,-0.027845213189721107,0.23462316393852234,-0.11191215366125107
1790690957667810000,3.11781005859375,0.033128660172224045,-0.008531436324119568,-0.16548722982406616
1790690957677847800,3.127847900390625,0.06391293555498123,-0.00817883387207985,-0.06296645104885101
1790690957687886000,3.137885986328125,0.020203538239002228,0.04306517913937569,-0.026320554316043854
1790690957697923800,3.147923828125,-0.05235615000128746,0.020013920962810516,-0.1006576344370842
1790690957707961900,3.1579619140625,-0.14453880488872528,0.16896212100982666,-0.0824810266494751
1790690957717999900,3.167999755859375,-0.24189811944961548,0.3127073049545288,-0.04488012194633484
1790690957728038000,3.178037841796875,-0.32735708355903625,0.21482495963573456,-0.09709671884775162
1790690957738076000,3.188075927734375,-0.42301011085510254,0.15723170340061188,-0.11084821820259094
1790690957748114000,3.198114013671875,-0.5284654498100281,0.1400337964296341,-0.12907250225543976
1790690957758152000,3.20815185546875,-0.6134892702102661,0.05663877725601196,-0.16020618379116058
1790690957768190000,3.21818994140625,-0.6243687868118286,0.008702411316335201,-0.06996577233076096
1790690957778227700,3.228227783203125,-0.622251570224762,0.32991984486579895,0.16850964725017548
1790690957788266000,3.238265869140625,-0.6499063968658447,0.07375118881464005,-0.03322639688849449
1790690957798304800,3.2483046875,-0.6195881366729736,-0.026158632710576057,-0.13377563655376434
1790690957808343000,3.258343017578125,-0.5126987099647522,0.11227381229400635,0.010728011839091778
1790690957818380800,3.268380859375,-0.3845761716365814,0.12221752107143402,-0.013502226211130619
1790690957828419000,3.278419189453125,-0.2380591630935669,0.11309779435396194,-0.007092264015227556
1790690957838456800,3.288456787109375,-0.1272927075624466,0.18251681327819824,0.06991303712129593
1790690957848495000,3.2984951171875,-0.0638817772269249,0.06065163016319275,-0.033306822180747986
1790690957858532900,3.308532958984375,-0.02268666960299015,0.07608465105295181,-0.02841060236096382
1790690957868571000,3.31857080078125,-0.025955701246857643,-0.02189730852842331,-0.06353610008955002
1790690957878609000,3.32860888671875,-0.07426038384437561,-0.02732323296368122,-0.08700334280729294
1790690957888647000,3.33864697265625,-0.15017858147621155,-0.020868796855211258,-0.1007993146777153
1790690957898685000,3.348684814453125,-0.23475418984889984,-0.007333280518651009,-0.09750258922576904
1790690957908723000,3.358722900390625,-0.2973349988460541,0.06028890609741211,-0.052142564207315445
1790690957918761000,3.368760986328125,-0.3522813618183136,0.10190212726593018,-0.038971368223428726
1790690957928799000,3.378799072265625,-0.41367706656455994,0.08869844675064087,-0.029685724526643753
1790690957938836700,3.388836669921875,-0.46495410799980164,0.0512530691921711,-0.044011667370796204
1790690957948875000,3.398875,-0.47595828771591187,-0.04235571250319481,-0.09542132914066315
1790690957958912800,3.408912841796875,-0.46543025970458984,-0.14861078560352325,-0.0940529927611351
1790690957968952000,3.4189521484375,-0.44582489132881165,-0.16894906759262085,-0.086177758872509
1790690957978989800,3.42898974609375,-0.37914732098579407,-0.09161487221717834,-0.06860915571451187
1790690957989028000,3.439028076171875,-0.29926472902297974,-0.03543389216065407,-0.056768473237752914
1790690957999065900,3.44906591796875,-0.19669601321220398,-0.0005483448621816933,-0.04777418076992035
1790690958009104100,3.459104248046875,-0.09194057434797287,0.031217306852340698,-0.013089437037706375
1790690958019142700,3.469142578125,-0.0011169298086315393,-0.012084359303116798,-0.010962902568280697
1790690958029180700,3.4791806640625,0.027366111055016518,-0.03380110487341881,-0.012995959259569645
1790690958039218700,3.48921875,0.025907764211297035,-0.0030594393610954285,-0.01062015350908041
1790690958049256700,3.499256591796875,0.024774055927991867,0.0006165218073874712,-0.003611779073253274
1790690958059294700,3.509294677734375,0.0198605228215456,0.0027110979426652193,-0.017007213085889816
1790690958069332700,3.519332763671875,0.01269662007689476,0.04014076292514801,-0.026447053998708725
1790690958079370800,3.529370849609375,0.012293151579797268,0.029685724526643753,-0.018007496371865273
1790690958089408500,3.539408447265625,0.018871957436203957,-0.013776266016066074,-0.011343467980623245
1790690958099446800,3.54944677734375,0.02859143167734146,-0.07064007967710495,0.016955014318227768
1790690958109484800,3.55948486328125,0.06250199675559998,-0.2528016269207001,0.04970630258321762
1790690958119522800,3.569522705078125,0.13372956216335297,-0.32662099599838257,0.07265076786279678
1790690958129560800,3.579560791015625,0.24088265001773834,-0.2541976571083069,0.07806231081485748
1790690958139598800,3.589598876953125,0.30836769938468933,-0.19612237811088562,0.1002536341547966
1790690958149637600,3.5996376953125,0.3741648197174072,-0.2155458778142929,0.11945715546607971
1790690958159676000,3.609676025390625,0.4508800804615021,-0.38786518573760986,0.10318470746278763
1790690958169713700,3.619713623046875,0.4820782244205475,-0.6115840077400208,0.11612580716609955
1790690958179751700,3.629751708984375,0.49613067507743835,-0.8575578331947327,0.15460263192653656
1790690958189789700,3.639789794921875,0.5103610157966614,-0.9892141222953796,0.15471820533275604
1790690958199827700,3.64982763671875,0.5128499865531921,-1.0257692337036133,0.19493326544761658
1790690958209865700,3.65986572265625,0.4980207085609436,-1.0914171934127808,0.2480899691581726
1790690958219903700,3.66990380859375,0.4576288163661957,-1.2102562189102173,0.2166108638048172
1790690958229941800,3.679941650390625,0.4009231925010681,-1.1798285245895386,0.17034350335597992
1790690958239979800,3.689979736328125,0.3037708103656769,-1.0632662773132324,0.0971747562289238
1790690958250017500,3.700017578125,0.16066637635231018,-1.0437524318695068,-0.011316037736833096
1790690958260055800,3.710055908203125,0.03452735021710396,-1.0398048162460327,-0.18693126738071442
1790690958270093600,3.720093505859375,-0.04645644873380661,-1.1148905754089355,-0.3153289258480072
1790690958280131800,3.7301318359375,-0.046848997473716736,-1.1559940576553345,-0.39907920360565186
1790690958290169600,3.740169677734375,0.021396635100245476,-0.9169814586639404,-0.3056025207042694
1790690958300207900,3.750207763671875,0.09531746059656143,-0.3366965353488922,0.009357282891869545
1790690958310245600,3.76024560546875,0.16621240973472595,-0.8650304079055786,0.12169714272022247
1790690958320285000,3.770284912109375,0.23055784404277802,-0.3271687924861908,0.21319909393787384
1790690958330322700,3.78032275390625,0.21563056111335754,0.28252118825912476,0.43909987807273865
1790690958340360700,3.790360595703125,0.2740645706653595,0.3447265028953552,0.5914960503578186
1790690958350398700,3.800398681640625,0.3491380214691162,0.6616604924201965,0.6599976420402527
1790690958360436700,3.810436767578125,0.2857510447502136,0.9823402762413025,0.7898775935173035
1790690958370474800,3.820474853515625,0.1958928108215332,0.33512261509895325,0.7770259976387024
1790690958380512800,3.8305126953125,0.038773760199546814,0.5705135464668274,0.24301691353321075
1790690958390550800,3.84055078125,-0.006514891050755978,0.5096070766448975,0.2007613331079483
1790690958400588800,3.8505888671875,-0.026313362643122673,0.47631728649139404,0.09597553312778473
1790690958410626600,3.86062646484375,-0.011813249439001083,0.4433191120624542,-0.007173224352300167
1790690958420664800,3.870664794921875,-0.4925955832004547,-0.38425207138061523,-0.19931523501873016
1790690958430702600,3.88070263671875,-0.9168901443481445,-1.2824598550796509,-0.47636309266090393
1790690958440740900,3.890740966796875,-0.48419198393821716,-0.5566858649253845,-0.5860568284988403
1790690958450778600,3.900778564453125,-0.1312890499830246,-0.7043312788009644,-0.7314491868019104
1790690958460816600,3.910816650390625,0.039679236710071564,-1.254064917564392,-0.6756561994552612
1790690958470854700,3.920854736328125,-0.03840437904000282,-1.2721891403198242,-0.4038710296154022
1790690958480894000,3.93089404296875,-0.0430167093873024,-0.9214435815811157,-0.2834077477455139
1790690958490931700,3.940931640625,-0.028390362858772278,-0.5771570801734924,-0.1917121708393097
1790690958500969700,3.9509697265625,-0.031006650999188423,0.34488388895988464,0.013304886408150196
1790690958511007700,3.9610078125,-0.03449992090463638,0.10678210854530334,0.035424038767814636
1790690958521045800,3.971045654296875,0.02773549035191536,0.0732467845082283,0.053693320602178574
1790690958531083800,3.981083740234375,0.0759485587477684,0.005102350376546383,0.05955174192786217
1790690958541121800,3.991121826171875,0.13280677795410156,-0.025657959282398224,0.11458383500576019
1790690958551159600,4.00115966796875,0.1448991298675537,0.24133805930614471,0.19057713449001312
1790690958561197800,4.01119775390625,0.09298240393400192,0.4370367228984833,0.2831387519836426
1790690958571235600,4.021235595703125,0.03666453808546066,0.45739099383354187,0.28169161081314087
1790690958581273900,4.03127392578125,0.019764650613069534,0.3083253502845764,0.2553289830684662
1790690958591311600,4.0413115234375,0.05212418735027313,0.1576884239912033,0.28722432255744934
1790690958601350000,4.051349853515625,0.10052447766065598,0.02815760113298893,0.32921624183654785
1790690958611387600,4.0613876953125,0.16226720809936523,-0.08579958975315094,0.33838364481925964
1790690958621425700,4.07142578125,0.16763827204704285,-0.1320381909608841,0.36225754022598267
1790690958631463700,4.081463623046875,0.24296045303344727,-0.08280433714389801,0.38038915395736694
1790690958641502700,4.091502685546875,0.2923796772956848,0.07544016093015671,0.3532707095146179
1790690958651540700,4.101540771484375,0.36823394894599915,0.11036965250968933,0.40474003553390503
1790690958661578800,4.111578857421875,0.5710400342941284,-0.2694714069366455,0.42871299386024475
1790690958671616800,4.12161669921875,0.7423281669616699,-0.42652761936187744,0.38022804260253906
1790690958681654800,4.13165478515625,0.7801865935325623,-0.2887130379676819,0.4136773347854614
1790690958691692800,4.14169287109375,0.5500175952911377,0.4865725636482239,0.21843087673187256
1790690958701730800,4.151730712890625,0.47341257333755493,0.12399385124444962,0.3715660870075226
1790690958711768600,4.1617685546875,0.33284932374954224,0.18998964130878448,0.2916558086872101
1790690958721806800,4.171806884765625,0.15481515228748322,0.4369373917579651,0.22934824228286743
1790690958731844600,4.1818447265625,0.02912859059870243,0.5485672354698181,0.17771592736244202
1790690958741883000,4.1918828125,-0.0007520766812376678,0.602148711681366,0.1383509486913681
1790690958751920600,4.201920654296875,-0.05028181150555611,0.5902963280677795,0.1581137329339981
1790690958761959000,4.211958984375,-0.10318737477064133,0.5258110761642456,0.13669605553150177
1790690958771996700,4.22199658203125,-0.13456633687019348,0.390581339597702,0.08596710860729218
1790690958782034700,4.23203466796875,-0.18566520512104034,0.20256616175174713,0.051537226885557175
1790690958792072700,4.24207275390625,-0.22312922775745392,0.03002501092851162,0.014709703624248505
1790690958802110700,4.25211083984375,-0.27102163434028625,-0.01822853833436966,-0.016474580392241478
1790690958812149800,4.262149658203125,-0.3185409605503082,-0.02491760067641735,-0.003216033335775137
1790690958822187800,4.272187744140625,-0.2006601244211197,0.031682562083005905,0.03852555528283119
1790690958832225800,4.282225830078125,-0.09780246019363403,0.11539556831121445,0.07241693884134293
1790690958842263800,4.292263916015625,-0.09791164845228195,-0.0399538092315197,0.06364688277244568
1790690958852301800,4.3023017578125,-0.09217466413974762,-0.2530823349952698,0.004602741450071335
1790690958862339800,4.31233984375,-0.16307280957698822,-0.27240249514579773,-0.10181238502264023
1790690958872377600,4.322377685546875,-0.24315060675144196,-0.3261687755584717,-0.19632238149642944
1790690958882415900,4.332415771484375,-0.2953064739704132,-0.45218104124069214,-0.24330000579357147
1790690958892453600,4.34245361328125,-0.3588756024837494,-0.5194703340530396,-0.25761210918426514
1790690958902492000,4.352491943359375,-0.45456990599632263,-0.6727153062820435,-0.18581567704677582
1790690958912529700,4.36252978515625,-0.5041776895523071,-0.6277222633361816,-0.35610777139663696
1790690958922568000,4.37256787109375,-0.5472801327705383,-0.8094595670700073,-0.5412286520004272
1790690958932605700,4.382605712890625,-0.5433914065361023,-1.238891363143921,-0.7016438841819763
1790690958942643700,4.392643798828125,-0.4254453182220459,-1.1599528789520264,-0.9586570262908936
1790690958952681700,4.402681640625,-0.49083495140075684,-1.5254261493682861,-0.8589964509010315
1790690958962719700,4.4127197265625,-0.4403984248638153,-1.5645644664764404,-0.8450092673301697
1790690958972758800,4.4227587890625,-0.42281970381736755,-1.5376628637313843,-0.7353155612945557
1790690958982796500,4.432796630859375,-0.3398750126361847,-1.5440895557403564,-0.5851652026176453
1790690958992834800,4.442834716796875,-0.32294341921806335,0.22722463309764862,-0.06278455257415771
1790690959002872800,4.452872802734375,-0.006225937977433205,0.2411298006772995,-0.06614653021097183
1790690959012910800,4.462910888671875,0.016047941520810127,-0.15550915896892548,0.07121239602565765
1790690959022948000,4.472947998046875,0.10633256286382675,0.028446288779377937,0.2726041078567505
1790690959032986000,4.482986083984375,0.31248733401298523,0.060209810733795166,0.4949333071708679
1790690959043024100,4.493024169921875,0.38324034214019775,0.593557596206665,0.6612985730171204
1790690959053062100,4.503062255859375,0.38715091347694397,1.8431737422943115,0.5417609810829163
1790690959063100200,4.51310009765625,0.5300569534301758,1.801644206047058,0.9083733558654785
1790690959073138000,4.523137939453125,0.5786631107330322,2.0244193077087402,1.1152585744857788
1790690959083176200,4.53317626953125,0.5901468992233276,2.421210527420044,1.3465852737426758
1790690959093214000,4.5432138671875,0.6103408336639404,3.587503433227539,1.320570707321167
1790690959103252200,4.553252197265625,0.7982260584831238,3.969588041305542,1.723789095878601
1790690959113290000,4.5632900390625,0.996963381767273,4.912225723266602,1.8554555177688599
1790690959123328300,4.573328369140625,1.2035086154937744,5.711318492889404,2.125464677810669
1790690959133366000,4.583365966796875,1.4995567798614502,6.3165130615234375,2.426457166671753
1790690959143405300,4.5934052734375,1.093187689781189,-1.6876592636108398,-1.3581393957138062
1790690959153443000,4.603443115234375,0.9297670722007751,-0.8257524967193604,-0.1826518326997757
1790690959163481000,4.613481201171875,1.1387807130813599,1.2158414125442505,0.5767701268196106
1790690959173519000,4.62351904296875,1.3554866313934326,-0.9928653240203857,-0.65996915102005
1790690959183557000,4.63355712890625,1.3616907596588135,-0.8030828833580017,-0.10106562823057175
1790690959193595100,4.64359521484375,1.1649856567382812,-0.25252917408943176,0.27853283286094666
1790690959203633200,4.653633056640625,0.3853974938392639,0.4381142258644104,-0.0635179877281189
1790690959213671200,4.663671142578125,0.20576168596744537,-0.48329368233680725,-0.3115687966346741
1790690959223709200,4.673709228515625,0.30659055709838867,-1.464314579963684,-0.7932443618774414
1790690959233747000,4.683746826171875,0.3323816657066345,-2.3211913108825684,-0.9954445958137512
1790690959243785200,4.69378515625,0.1877070516347885,-2.8414788246154785,-1.2168203592300415
1790690959253823000,4.703822998046875,0.11996075510978699,-3.262441396713257,-1.3854522705078125
1790690959263861200,4.713861328125,0.10261452198028564,-1.3808990716934204,-0.4761106073856354
1790690959273899000,4.72389892578125,0.08299288898706436,0.3571011424064636,-0.193349227309227
1790690959283937300,4.733937255859375,0.07500260323286057,0.69224613904953,0.02014867775142193
1790690959293975000,4.74397509765625,0.08063359558582306,0.5448393225669861,0.15416772663593292
1790690959304014000,4.75401416015625,0.0897141769528389,0.5407093167304993,0.19436441361904144
1790690959314052000,4.764052001953125,0.09130275249481201,0.7020750641822815,0.23780696094036102
1790690959324090000,4.774090087890625,-0.13349974155426025,0.5902222990989685,0.17903180420398712
1790690959334128000,4.784128173828125,-0.23577870428562164,0.2629892826080322,0.11637614667415619
1790690959344166100,4.794166259765625,-0.22601129114627838,0.23611772060394287,-0.03311188146471977
1790690959354204200,4.8042041015625,-0.1424197256565094,-0.05747527629137039,-0.2620190978050232
1790690959364242200,4.8142421875,-0.20241914689540863,0.1340043991804123,-0.3308010995388031
1790690959374280200,4.8242802734375,-0.4029591679573059,0.22435534000396729,-0.4383437931537628
1790690959384318200,4.834318115234375,-0.5293107032775879,0.08699588477611542,-0.5624859929084778
1790690959394356000,4.84435595703125,-0.6668904423713684,0.35424622893333435,-0.6654464602470398
1790690959404394200,4.854394287109375,-0.5559553503990173,-0.09328200668096542,-0.8197854161262512
1790690959414432000,4.864431884765625,-0.38888755440711975,0.18720877170562744,-0.8420481085777283
1790690959424470300,4.87447021484375,-0.23246227204799652,0.024714667350053787,-0.8432161808013916
1790690959434508000,4.884508056640625,0.07359592616558075,0.5675204396247864,0.04367450997233391
1790690959444546300,4.89454638671875,0.044555485248565674,0.2899724245071411,0.4911670684814453
1790690959454584000,4.904583984375,0.11011026054620743,-0.1485854834318161,0.11247701197862625
1790690959464623000,4.914623046875,0.13437432050704956,0.02141953818500042,-0.036432843655347824
1790690959474661000,4.9246611328125,0.07569050043821335,-0.015596004202961922,-0.040945835411548615
1790690959484699100,4.93469921875,0.006732204928994179,-0.0228592436760664,0.08233162760734558
1790690959494737200,4.944737060546875,0.016468456014990807,-0.07170934230089188,0.06860116124153137
1790690959504775200,4.954775146484375,-0.02014734596014023,-0.11338381469249725,0.013792511075735092
1790690959514813200,4.964813232421875,-0.03509087488055229,0.015112373977899551,0.023574568331241608
1790690959524851200,4.974851318359375,-0.02479562722146511,-0.0012993563432246447,0.07080519944429398
1790690959534889200,4.98488916015625,-0.017129452899098396,0.007210508454591036,0.0846075639128685
1790690959544927200,4.99492724609375,0.011921906843781471,-0.004570783115923405,0.06659580767154694
1790690959554965000,5.004965087890625,0.03241732716560364,-0.013803962618112564,0.0913136675953865
1790690959565003300,5.015003173828125,0.09534436464309692,-0.026808710768818855,0.12402047961950302
1790690959575041000,5.025041015625,0.1485644429922104,-0.04445135220885277,0.1391158103942871
1790690959585079300,5.035079345703125,0.029713420197367668,0.448490709066391,-0.3366485834121704
1790690959595117000,5.045116943359375,-0.1030358374118805,0.4584152400493622,-0.16680602729320526
1790690959605155000,5.055155029296875,-0.2037251591682434,0.3779638111591339,0.04098924621939659
1790690959615193000,5.065193115234375,-0.3269496262073517,0.08877114951610565,0.1253501921892166
1790690959625232100,5.075232177734375,-0.4143303334712982,0.09498084336519241,0.040231041610240936
1790690959635270100,5.085270263671875,-0.2946454882621765,0.2494274079799652,-0.3355758786201477
1790690959645308000,5.095307861328125,-0.2687893807888031,0.664241373538971,-0.5750302672386169
1790690959655346200,5.10534619140625,-0.26304149627685547,2.337733507156372,-0.3777600824832916
1790690959665384000,5.115384033203125,-0.2281263768672943,2.758359432220459,-0.44699692726135254
1790690959675422200,5.125422119140625,-0.20777210593223572,0.4891792833805084,-1.222538709640503
1790690959685460000,5.1354599609375,0.039327166974544525,0.4346422553062439,0.1790134310722351
1790690959695498200,5.145498291015625,-0.01601198874413967,-0.1725294291973114,0.3572361469268799
1790690959705536000,5.155535888671875,-0.09432251006364822,-0.11188126355409622,0.22262774407863617
1790690959715574000,5.165573974609375,-0.1747523695230484,-0.07762874662876129,-0.06343463063240051
1790690959725612300,5.1756123046875,-0.06057519465684891,-0.24247150123119354,-0.16831177473068237
1790690959735650000,5.185650146484375,0.06820515543222427,-0.0821840837597847,-0.0015403723809868097
1790690959745688300,5.195688232421875,0.16630588471889496,0.078508660197258,0.15691451728343964
1790690959755726000,5.20572607421875,0.21265047788619995,-0.1406085193157196,0.057065416127443314
1790690959765764000,5.21576416015625,0.23367241024971008,-0.021938055753707886,0.09481599181890488
1790690959775802000,5.225802001953125,0.26722851395606995,0.045460425317287445,0.17313849925994873
1790690959785841200,5.235841064453125,0.3499561548233032,0.04085049405694008,0.1858058124780655
1790690959795879200,5.245879150390625,0.4732748866081238,0.17492280900478363,0.194975346326828
1790690959805917000,5.2559169921875,0.6342025399208069,0.31932446360588074,0.17872260510921478
1790690959815955200,5.265955078125,0.7180169820785522,-0.20871007442474365,0.07611527293920517
1790690959825993000,5.275992919921875,0.7852045297622681,0.008854477666318417,0.17149612307548523
1790690959836031200,5.28603125,0.6897709965705872,0.004818457178771496,0.2431063950061798
1790690959846069000,5.296069091796875,0.6223844885826111,-0.11108657717704773,0.2433820217847824
1790690959856107000,5.30610693359375,0.6261988878250122,-0.014393320307135582,0.1494816392660141
1790690959866145000,5.31614501953125,0.6659865379333496,0.027483023703098297,-0.009362609125673771
1790690959876183000,5.32618310546875,0.700249969959259,0.10533387959003448,-0.14050784707069397
1790690959886221000,5.336220947265625,0.5842778086662292,0.14475345611572266,-0.09560135751962662
1790690959896259000,5.346259033203125,0.38711977005004883,-0.05793174356222153,0.08185598254203796
1790690959906297000,5.356297119140625,0.25266286730766296,-0.010844924487173557,0.09739739447832108
1790690959916335000,5.366335205078125,0.14350230991840363,-0.04645751416683197,-0.043835632503032684
1790690959926373000,5.376373046875,0.049068741500377655,0.09523729979991913,-0.12990020215511322
1790690959936411100,5.3864111328125,-0.01452647801488638,0.05771150067448616,-0.21901650726795197
1790690959946450000,5.396449951171875,-0.041493646800518036,0.13960689306259155,-0.18816165626049042
1790690959956488200,5.40648828125,-0.02400306984782219,0.13121022284030914,-0.10918667167425156
1790690959966526000,5.41652587890625,-0.009998572058975697,0.1248876079916954,-0.08676072955131531
1790690959976564200,5.426564208984375,0.017418138682842255,0.19006846845149994,-0.12106943130493164
1790690959986602000,5.43660205078125,0.05359451845288277,0.2010233849287033,-0.10369417071342468
1790690959996640300,5.44664013671875,0.0894332081079483,0.11703740805387497,-0.033546242862939835
1790690960006678000,5.456677978515625,0.060390107333660126,0.09699099510908127,-0.023620907217264175
1790690960016716000,5.466716064453125,0.047079626470804214,0.12348119169473648,-0.04849855974316597
1790690960026753500,5.47675341796875,0.040532778948545456,0.11682754755020142,-0.07455679029226303
1790690960036791600,5.48679150390625,0.04633500799536705,0.12695156037807465,-0.1171918734908104
1790690960046829600,5.49682958984375,0.05241686850786209,0.16254949569702148,-0.13082964718341827
1790690960056867600,5.50686767578125,0.06566236913204193,0.16164588928222656,-0.06388018280267715
1790690960066905600,5.516905517578125,0.08098326623439789,0.11583898216485977,0.020369986072182655
1790690960076943600,5.526943603515625,0.05843827500939369,-0.004999818746000528,0.04911108687520027
1790690960086981600,5.536981689453125,0.037766553461551666,0.10304249823093414,-0.007020891644060612
1790690960097020700,5.547020751953125,0.04791799187660217,0.10255167633295059,-0.03695562109351158
1790690960107058400,5.557058349609375,0.03965899720788002,0.0009779128013178706,-0.053041648119688034
1790690960117096400,5.567096435546875,-0.00029401297797448933,0.015867646783590317,-0.08300167322158813
1790690960127134500,5.577134521484375,-0.0290518905967474,0.05429679527878761,-0.12082628905773163
1790690960137172500,5.58717236328125,-0.012049205601215363,0.010506702587008476,-0.09508150815963745
1790690960147210500,5.59721044921875,0.008165784180164337,0.061706505715847015,-0.05427229404449463
1790690960157248500,5.60724853515625,0.027004985138773918,0.03524747118353844,-0.04163080081343651
1790690960167286500,5.61728662109375,0.02527632750570774,0.08505070954561234,-0.03747333958745003
1790690960177324500,5.627324462890625,0.017600299790501595,0.11314839124679565,-0.021796109154820442
1790690960187362600,5.637362548828125,0.023389212787151337,0.10008638352155685,-0.006785734556615353
1790690960197400600,5.647400634765625,0.04827725142240524,0.12296906858682632,0.018157698214054108
1790690960207438600,5.6574384765625,-0.01974520832300186,0.1937423050403595,0.09640803188085556
1790690960217476600,5.6674765625,-0.0018511632224544883,0.007473362609744072,0.022114090621471405
1790690960227514600,5.6775146484375,-0.004175570327788591,0.055145811289548874,-0.10564973205327988
1790690960237552600,5.687552734375,0.006981476675719023,0.0169661995023489,-0.10626598447561264
1790690960247590700,5.697590576171875,0.040218792855739594,0.004089816473424435,-0.033965423703193665
1790690960257629700,5.707629638671875,0.09608791768550873,-0.03544187918305397,0.05036250501871109
1790690960267667500,5.71766748046875,0.15811213850975037,-0.06957508623600006,0.07202412933111191
1790690960277705500,5.72770556640625,0.14719291031360626,-0.0631861612200737,0.040345024317502975
1790690960287743500,5.737743408203125,-0.04794009402394295,0.07202652096748352,-0.10817760229110718
1790690960297781500,5.747781494140625,-0.09198105335235596,0.13159610331058502,-0.17221170663833618
1790690960307819500,5.757819580078125,-0.19421368837356567,0.08043359220027924,-0.13086214661598206
1790690960317857500,5.767857421875,-0.35794776678085327,0.12364337593317032,-0.13241688907146454
1790690960327895600,5.7778955078125,-0.4579142928123474,0.22399768233299255,-0.15704473853111267
1790690960337933600,5.78793359375,-0.39696013927459717,0.21006189286708832,-0.0642588809132576
1790690960347971300,5.797971435546875,-0.3668360710144043,0.1567789614200592,0.07238631695508957
1790690960358009600,5.808009521484375,-0.28850609064102173,0.20047584176063538,0.10964846611022949
1790690960368047400,5.81804736328125,-0.19732345640659332,0.17611564695835114,0.1690412163734436
1790690960378085600,5.828085693359375,-0.23997797071933746,0.1682739555835724,0.19152867794036865
1790690960388123400,5.838123291015625,-0.31614065170288086,0.2964516282081604,0.22183679044246674
1790690960398161400,5.848161376953125,-0.3665574789047241,0.3771826922893524,0.2167123407125473
1790690960408200400,5.858200439453125,-0.4504750370979309,0.45528414845466614,0.2211875170469284
1790690960418238700,5.86823876953125,-0.5133432149887085,0.5401244759559631,0.2353438138961792
1790690960428276500,5.8782763671875,-0.5738632678985596,0.6148040294647217,0.3124591112136841
1790690960438314500,5.888314453125,-0.6712002158164978,0.6304405331611633,0.3308887183666229
1790690960448352500,5.8983525390625,-0.8904944658279419,0.35951662063598633,0.2409987598657608
1790690960458390500,5.908390625,-1.1419483423233032,0.5355851054191589,0.14762701094150543
1790690960468428500,5.918428466796875,-1.5123369693756104,1.3638156652450562,0.3950437307357788
1790690960478466600,5.928466552734375,-1.6145901679992676,0.08286318928003311,-0.04731345176696777
1790690960488504300,5.93850439453125,-1.9229133129119873,0.44120296835899353,0.29000920057296753
1790690960498542600,5.94854248046875,-1.9761406183242798,0.14620435237884521,0.3939414322376251
1790690960508580400,5.958580322265625,-1.8278448581695557,0.5748566389083862,0.4824627935886383
1790690960518618600,5.96861865234375,-1.7378768920898438,-0.3932804465293884,0.11296463757753372
1790690960528656400,5.978656494140625,-2.0265591144561768,0.712199866771698,0.4707517921924591
1790690960538694700,5.988694580078125,-1.6650149822235107,-0.5009000897407532,-0.1486603170633316
1790690960548732400,5.998732421875,-1.7862460613250732,0.3994283676147461,0.5543779730796814
1790690960558770400,6.0087705078125,-1.3561689853668213,-2.044044256210327,-0.08093106746673584
1790690960568809500,6.0188095703125,-1.096260905265808,-0.6055617928504944,0.2525251805782318
1790690960578847500,6.028847412109375,-0.6073163151741028,-0.7128350138664246,0.12128221988677979
1790690960588885500,6.038885498046875,-0.15695072710514069,-0.568074643611908,-0.016352076083421707
1790690960598923500,6.048923583984375,0.04186275973916054,-0.25144606828689575,-0.18757309019565582
1790690960608961500,6.05896142578125,0.15532247722148895,-0.21709556877613068,-0.1678697019815445
1790690960618999600,6.06899951171875,0.20893137156963348,-0.30081629753112793,-0.15223880112171173
1790690960629037600,6.07903759765625,0.2107178270816803,-0.4522921144962311,-0.23063375055789948
1790690960639075600,6.08907568359375,0.2164156585931778,-0.5035281181335449,-0.21239535510540009
1790690960649113300,6.09911328125,0.32561272382736206,-0.4988449513912201,-0.144616037607193
1790690960659151600,6.109151611328125,0.5821046829223633,-0.4177229404449463,-0.10179293900728226
1790690960669189400,6.119189453125,0.7776209115982056,-0.3807920813560486,-0.0009598032338544726
1790690960679227600,6.1292275390625,0.7189123630523682,-0.8300108909606934,-0.03544028103351593
1790690960689265400,6.139265380859375,0.41212818026542664,-0.6161587834358215,-0.3649161756038666
1790690960699303700,6.1493037109375,0.5427926778793335,-0.27903056144714355,-0.2291969656944275
1790690960709341400,6.159341552734375,0.7914667129516602,-0.49400973320007324,-0.1789846569299698
1790690960719379500,6.16937939453125,0.9508028030395508,-0.6880095601081848,-0.1561746895313263
1790690960729418500,6.17941845703125,0.9901811480522156,-0.6360616683959961,-0.028445223346352577
1790690960739456500,6.18945654296875,1.0903830528259277,-0.34595048427581787,0.007258711848407984
1790690960749494500,6.19949462890625,0.7291415333747864,0.008732238784432411,-0.047816526144742966
1790690960759532500,6.209532470703125,0.3231216073036194,0.04108059033751488,-0.0772886648774147
1790690960769570600,6.219570556640625,0.12847301363945007,-0.006899717729538679,-0.11947420239448547
1790690960779608600,6.229608642578125,0.08649680763483047,0.01973961666226387,-0.13065920770168304
1790690960789646600,6.239646484375,0.04285958409309387,0.07585454732179642,-0.05528509244322777
1790690960799684600,6.2496845703125,0.044851358979940414,0.09364046901464462,0.002180063631385565
1790690960809722400,6.259722412109375,0.07642047107219696,0.3232949674129486,-0.059728577733039856
1790690960819760600,6.2697607421875,0.0024256070610135794,0.0762883797287941,0.08947581797838211
1790690960829798400,6.27979833984375,0.026333335787057877,0.07165634632110596,0.07880666106939316
1790690960839836700,6.289836669921875,0.0942375510931015,0.04562527686357498,-0.017006680369377136
1790690960849874400,6.29987451171875,0.18819281458854675,-0.03457874804735184,-0.03501683846116066
1790690960859912700,6.30991259765625,0.18459993600845337,-0.06247749179601669,0.08130843937397003
1790690960869950500,6.319950439453125,0.163613423705101,-0.06980171799659729,0.18089841306209564
1790690960879988500,6.329988525390625,0.13906627893447876,-0.10734749585390091,0.16469120979309082
1790690960890027500,6.340027587890625,0.10677704960107803,-0.07907218486070633,0.09422290325164795
1790690960900065500,6.3500654296875,0.07881332188844681,-0.11064235866069794,0.06029956042766571
1790690960910103600,6.360103515625,0.04396506026387215,-0.0963720753788948,0.0665673092007637
1790690960920141600,6.3701416015625,0.0325171984732151,-0.104381263256073,0.09341010451316833
1790690960930179600,6.3801796875,0.04795580729842186,-0.10421322286128998,0.0988546758890152
1790690960940217600,6.390217529296875,0.06167321652173996,-0.12004891037940979,0.0818256214261055
1790690960950255600,6.400255615234375,0.10379244387149811,0.013400227762758732,0.015533152967691422
1790690960960293600,6.410293701171875,0.09444501250982285,-0.06488365679979324,0.032882582396268845
1790690960970331400,6.420331298828125,0.07700476795434952,-0.04316691309213638,0.1057935431599617
1790690960980369700,6.43036962890625,0.061768293380737305,-0.12049445509910583,0.14155234396457672
1790690960990407400,6.440407470703125,0.0580180287361145,-0.05095665901899338,0.10000675916671753
1790690961000445700,6.45044580078125,0.06024736166000366,-0.10384757071733475,0.0840192660689354
1790690961010483500,6.4604833984375,0.047203198075294495,-0.09905814379453659,0.05897144228219986
1790690961020522200,6.470522216796875,0.04658002033829689,-0.052928727120161057,0.04845301806926727
1790690961030560300,6.480560302734375,0.059121910482645035,-0.09071631729602814,-0.0016564861871302128
1790690961040599000,6.49059912109375,0.056179650127887726,-0.09145614504814148,-0.019029084593057632
1790690961050637300,6.50063720703125,0.0434393510222435,-0.060680124908685684,-0.004087686073035002
1790690961060675000,6.510675048828125,0.02888783998787403,-0.05266081541776657,-0.028499018400907516
1790690961070713000,6.520713134765625,-0.008009989745914936,-0.06500110030174255,0.004257861990481615
1790690961080751000,6.530751220703125,-0.039195071905851364,-0.08521848917007446,0.047619450837373734
1790690961090789000,6.5407890625,-0.03942037746310234,-0.08471062779426575,0.03833114355802536
1790690961100827100,6.5508271484375,-0.023497069254517555,-0.04013090953230858,-0.004358529578894377
1790690961110865200,6.560865234375,-0.009045160375535488,-0.049914829432964325,-0.018198711797595024
1790690961120903200,6.570903076171875,-0.015330486930906773,-0.0379503108561039,0.0177566260099411
1790690961130941200,6.580941162109375,-0.04415547847747803,-0.04837445542216301,0.06384236365556717
1790690961140979000,6.59097900390625,-0.06879877299070358,-0.03832368552684784,0.04712436720728874
1790690961151017200,6.601017333984375,-0.07489980757236481,-0.019057314842939377,-0.03062235750257969
1790690961161055000,6.611054931640625,-0.0754428282380104,-0.008579373359680176,-0.09242554008960724
1790690961171093200,6.62109326171875,-0.06976842880249023,-0.015033011324703693,-0.08720520883798599
1790690961181131000,6.631131103515625,-0.05632266029715538,-0.024622255936264992,-0.04917154088616371
1790690961191169300,6.641169189453125,-0.048043426126241684,-0.0336514376103878,-0.0403791144490242
1790690961201207000,6.65120703125,-0.029193304479122162,-0.045275069773197174,-0.08025409281253815
1790690961211246300,6.661246337890625,0.0005432848702184856,0.007790811359882355,-0.12876863777637482
1790690961221284000,6.6712841796875,0.02118651196360588,0.06058425083756447,-0.10306885838508606
1790690961231322000,6.681322021484375,0.05480093136429787,0.03395130857825279,-0.02274525910615921
1790690961241360100,6.691360107421875,0.07071171700954437,0.07639677077531815,0.003932689782232046
1790690961251398100,6.701398193359375,0.07538823038339615,0.10249920934438705,-0.013512879610061646
1790690961261436200,6.711436279296875,0.07294691354036331,0.11794740706682205,-0.017246898263692856
1790690961271474200,6.72147412109375,0.06373397260904312,0.1125747486948967,0.008008125238120556
1790690961281512200,6.73151220703125,0.0401732511818409,0.09324658662080765,0.04906181991100311
1790690961291550200,6.74155029296875,0.014932876452803612,0.0808732807636261,0.07434187829494476
1790690961301588000,6.751587890625,0.003674895968288183,0.06043032184243202,0.06474623829126358
1790690961311626200,6.761626220703125,0.0017443705582991242,0.0659172311425209,0.04577254876494408
1790690961321664000,6.7716640625,-0.001335575245320797,0.057260893285274506,0.04621356725692749
1790690961331702300,6.781702392578125,0.0016562198288738728,0.04596669226884842,0.054544735699892044
1790690961341740000,6.791739990234375,0.009191634133458138,0.03943102806806564,0.03244156390428543
1790690961351778300,6.8017783203125,0.020537765696644783,0.03147110715508461,-0.010230266489088535
1790690961361817000,6.811817138671875,0.024882713332772255,0.02376258745789528,-0.03286820277571678
1790690961371855400,6.82185546875,0.011007376946508884,-0.022299712523818016,-0.02967214211821556
1790690961381893000,6.83189306640625,-0.006163886282593012,-0.041798580437898636,-0.03603336960077286
1790690961391931100,6.84193115234375,-0.018851717934012413,-0.04779335483908653,-0.040585510432720184
1790690961401969200,6.85196923828125,-0.026204705238342285,-0.058515239506959915,-0.03044419176876545
1790690961412007200,6.862007080078125,-0.036314599215984344,-0.060689713805913925,-0.014342720620334148
1790690961422045200,6.872045166015625,-0.041498973965644836,-0.0621483251452446,-0.020423782989382744
1790690961432083200,6.882083251953125,-0.05269436910748482,-0.026677150279283524,-0.03158615529537201
1790690961442121200,6.892121337890625,-0.04158765822649002,-0.017733989283442497,-0.018602712079882622
1790690961452159200,6.9021591796875,-0.019764650613069534,-0.01756807416677475,0.013859356753528118
1790690961462197000,6.912197021484375,0.004486361052840948,-0.01595419831573963,0.04096793755888939
1790690961472235300,6.9222353515625,0.020064255222678185,-0.02845933847129345,0.04904131218791008
1790690961482273000,6.93227294921875,0.01841495931148529,-0.050703391432762146,0.03772953525185585
1790690961492311300,6.942311279296875,-0.0008900284301489592,-0.04542474076151848,0.013013270683586597
1790690961502349000,6.95234912109375,-0.01757206954061985,-0.03200560435652733,-0.015035674907267094
1790690961512387000,6.962386962890625,-0.018740398809313774,-0.01973908394575119,-0.017533719539642334
1790690961522426000,6.972426025390625,-0.005730589851737022,-0.02889130264520645,-0.00755112711340189
1790690961532464400,6.98246435546875,0.018023209646344185,-0.006506368983536959,-0.013909690082073212
1790690961542502100,6.992502197265625,0.026270752772688866,0.022830480709671974,-0.020498616620898247
1790690961552540200,7.0025400390625,0.05396949127316475,0.0379583016037941,-0.021745242178440094
1790690961562578200,7.012578125,0.07023075222969055,0.05216493457555771,-0.020981714129447937
1790690961572616200,7.0226162109375,0.061168547719717026,0.040580715984106064,-0.007852330803871155
1790690961582654200,7.032654296875,0.056410010904073715,0.023754065856337547,0.0010122675448656082
1790690961592692200,7.042692138671875,0.008186290971934795,0.018318021669983864,0.007286142557859421
1790690961602730000,7.05272998046875,-0.033065009862184525,-0.002225870033726096,0.051357995718717575
1790690961612768300,7.062768310546875,-0.039447009563446045,-0.027231886982917786,0.07814353704452515
1790690961622806000,7.072805908203125,-0.020351078361272812,-0.002368082758039236,0.07523269951343536
1790690961632844300,7.08284423828125,0.024501081556081772,0.004947886802256107,0.05318385735154152
1790690961642882000,7.092882080078125,0.05716901272535324,0.02527260035276413,0.04475255683064461
1790690961652920300,7.10292041015625,0.06288575381040573,0.020491693168878555,0.04308515414595604
1790690961662958000,7.1129580078125,0.05372048541903496,0.015548866242170334,0.02624065801501274
1790690961672996000,7.12299609375,0.03713751584291458,0.039382826536893845,0.029745645821094513
1790690961683035100,7.13303515625,0.039918653666973114,0.06632868945598602,-0.006864031311124563
1790690961693073200,7.1430732421875,0.02203179895877838,0.1258322298526764,-0.025541046634316444
1790690961703111200,7.153111083984375,0.027636954560875893,0.15370753407478333,-0.044564004987478256
1790690961713149200,7.163149169921875,0.04550516605377197,0.18911212682724,-0.08259101957082748
1790690961723187200,7.173187255859375,0.04342949762940407,0.27254071831703186,-0.09273233264684677
1790690961733225200,7.18322509765625,0.04643114656209946,0.19100138545036316,-0.09531906247138977
1790690961743263200,7.19326318359375,0.027586886659264565,0.37887701392173767,-0.06771326810121536
1790690961753301200,7.20330126953125,0.08295773714780807,0.4077344834804535,-0.06298375874757767
1790690961763339000,7.213339111328125,0.13623321056365967,0.15312351286411285,-0.04295865073800087
1790690961773377300,7.223377197265625,0.14910240471363068,0.07691342383623123,0.003323358716443181
1790690961783415000,7.2334150390625,0.142801895737648,0.0030988543294370174,0.039384957402944565
1790690961793453300,7.243453369140625,0.11231216043233871,-0.010542921721935272,0.01751134917140007
1790690961803491000,7.253490966796875,0.04422072321176529,-0.2420738786458969,-0.028210332617163658
1790690961813529300,7.263529296875,-0.01715688221156597,0.04333389177918434,-0.0507047213613987
1790690961823567000,7.273567138671875,-0.11451619118452072,-0.007021424360573292,-0.0300870630890131
1790690961833605000,7.283605224609375,-0.21851982176303864,-0.02564304508268833,-0.04813424125313759
1790690961843644200,7.29364404296875,-0.24885588884353638,0.004035487771034241,-0.04682689532637596
1790690961853682000,7.303681884765625,-0.23475764691829681,0.6012024879455566,-1.0580393075942993
1790690961863720200,7.31372021484375,-0.028404476121068,-0.4594522714614868,0.31907200813293457
1790690961873758000,7.323758056640625,0.04489503800868988,-0.3253421485424042,0.24711763858795166
1790690961883796200,7.333796142578125,0.02358761802315712,0.15113066136837006,-0.043897949159145355
1790690961893834200,7.343834228515625,0.024992167949676514,0.08322431892156601,-0.23755556344985962
1790690961903872300,7.353872314453125,0.0189041830599308,-0.20605063438415527,-0.04210244491696358
1790690961913910300,7.36391015625,-0.03122822754085064,-0.03929467499256134,0.05934428423643112
1790690961923948000,7.373947998046875,-0.06451374292373657,0.03897616267204285,-0.0033159018494188786
1790690961933986300,7.383986328125,-0.06948240846395493,-0.04782211780548096,-0.04108458757400513
1790690961944024000,7.394024169921875,-0.0676347017288208,0.05313858389854431,-0.016411464661359787
1790690961954062300,7.404062255859375,-0.06634440273046494,-0.06419602781534195,-0.024387897923588753
1790690961964100000,7.41410009765625,-0.07578051090240479,0.0654304027557373,-0.02509656548500061
1790690961974138400,7.424138427734375,-0.12719683349132538,-0.08442327380180359,-0.040233440697193146
1790690961984176000,7.434176025390625,-0.18973638117313385,0.004859203472733498,-0.11001677811145782
1790690961994214100,7.444214111328125,-0.29678666591644287,-0.0232898760586977,-0.009196161292493343
1790690962004252200,7.454252197265625,-0.4159282445907593,0.11796791851520538,0.012330436147749424
1790690962014291000,7.464291015625,-0.5631741285324097,0.14650635421276093,0.025252092629671097
1790690962024328700,7.47432861328125,-0.677608847618103,-0.16207918524742126,0.08109032362699509
1790690962034366700,7.48436669921875,-0.6935585141181946,-0.09124895185232162,0.00021225394448265433
1790690962044404700,7.49440478515625,-0.7344148755073547,-0.052987582981586456,0.0361446887254715
1790690962054443000,7.504443115234375,-0.8226427435874939,-0.041125599294900894,0.062439676374197006
1790690962064480800,7.514480712890625,-1.0294464826583862,-0.06326339393854141,0.11842970550060272
1790690962074518800,7.524518798828125,-1.1474477052688599,-0.6074705123901367,0.2984119951725006
1790690962084556800,7.534556884765625,-1.0923384428024292,-0.25664883852005005,0.16956372559070587
1790690962094594800,7.5445947265625,-0.8579061627388,0.013526194728910923,0.08508213609457016
1790690962104632800,7.5546328125,-0.5547550916671753,0.18018628656864166,-0.000818123109638691
1790690962114670800,7.5646708984375,-0.30781933665275574,0.01667698100209236,-0.1192808523774147
1790690962124708900,7.574708984375,-0.15253014862537384,0.13643214106559753,-0.12752573192119598
1790690962134747000,7.584746826171875,-0.08661185950040817,0.03838014602661133,-0.09596887230873108
1790690962144784600,7.59478466796875,-0.012479572556912899,-0.0848749428987503,-0.058332283049821854
1790690962154823000,7.604822998046875,0.02089063450694084,-0.10640952736139297,-0.06365833431482315
1790690962164860700,7.614860595703125,0.05216573178768158,-0.10408645123243332,-0.04693395271897316
1790690962174899700,7.624899658203125,0.11670637875795364,-0.10143101960420609,-0.013991182669997215
1790690962184937700,7.634937744140625,0.212849959731102,-0.08009297400712967,0.002633333671838045
1790690962194975700,7.644975830078125,0.3071700632572174,-0.05077556148171425,0.0056980992667376995
1790690962205013800,7.655013671875,0.38495486974716187,0.00535481795668602,0.01980646140873432
1790690962215051800,7.6650517578125,0.49075108766555786,-0.037039242684841156,0.01672278717160225
1790690962225089800,7.67508984375,0.6014653444290161,-0.01823892444372177,-0.015151255764067173
1790690962235127800,7.6851279296875,0.5686570405960083,0.16415990889072418,0.022481340914964676
1790690962245165800,7.695165771484375,0.5059007406234741,0.07632539421319962,0.0866113230586052
1790690962255203800,7.705203857421875,0.47526851296424866,-0.01119060255587101,0.05993124470114708
1790690962265241900,7.715241943359375,0.4088788330554962,0.013591175898909569,0.01073919702321291
1790690962275280000,7.72527978515625,0.35936933755874634,0.11109456419944763,-0.005501558072865009
1790690962285317600,7.735317626953125,0.3551788628101349,0.08425549417734146,0.0017632789677008986
1790690962295356000,7.74535595703125,0.3784301280975342,0.05072975531220436,0.0028722193092107773
1790690962305393700,7.7553935546875,0.4195149838924408,0.07318313419818878,-0.030715567991137505
1790690962315432000,7.765431884765625,0.4331687390804291,0.05709178000688553,-0.05588377267122269
1790690962325469700,7.7754697265625,0.3713937997817993,0.07166353613138199,-0.05265921726822853
1790690962335508700,7.7855087890625,0.20602773129940033,0.07496638596057892,-0.05217425525188446
1790690962345546800,7.795546630859375,0.06929438561201096,0.0754351019859314,-0.056359145790338516
1790690962355584800,7.805584716796875,0.027967453002929688,0.06423357874155045,-0.044193558394908905
1790690962365622800,7.815622802734375,0.03616013377904892,0.04523911699652672,-0.019482355564832687
1790690962375660500,7.82566064453125,0.03724031150341034,0.03945286571979523,-0.011380219832062721
1790690962385698800,7.83569873046875,0.030766434967517853,0.03946138918399811,-0.02534130960702896
1790690962395736600,7.845736572265625,0.018184863030910492,0.04291630908846855,-0.035833097994327545
1790690962405774800,7.85577490234375,0.02285737916827202,0.033964358270168304,-0.024817997589707375
1790690962415812600,7.8658125,0.03194088861346245,0.035644546151161194,-0.011386078782379627
1790690962425851000,7.875850830078125,0.034515365958213806,0.031439147889614105,-0.0015012238873168826
1790690962435888600,7.885888671875,0.02046372927725315,0.025226792320609093,-0.004424309358000755
1790690962445926700,7.8959267578125,-0.009222260676324368,0.02093617431819439,0.00004500742215896025
1790690962455965000,7.90596484375,-0.01871509850025177,0.009458483196794987,0.009732788428664207
1790690962466002700,7.916002685546875,-0.00458729499951005,-0.0017542241839691997,0.017765946686267853
1790690962476041000,7.926041015625,0.01218848954886198,-0.005643504671752453,0.015190936625003815
1790690962486078700,7.93607861328125,0.01780562847852707,-0.00310604483820498,0.006447246763855219
1790690962496117000,7.946116943359375,0.015250857919454575,0.007664044853299856,0.0022011026740074158
1790690962506155800,7.95615576171875,0.0023997745011001825,0.02111034467816353,0.003865312086418271
1790690962516193800,7.96619384765625,-0.005560413934290409,0.03322586417198181,-0.0022298647090792656
1790690962526231800,7.976231689453125,-0.01221352256834507,0.03346634656190872,-0.01278556976467371
1790690962536269600,7.98626953125,-0.01477495115250349,0.02257268689572811,-0.012643623165786266
1790690962546307800,7.996307861328125,-0.009250223636627197,-0.0067934575490653515,-0.023031549528241158
1790690962556345600,8.006345703125,-0.0030210898257791996,-0.00839774589985609,-0.060268666595220566
1790690962566383900,8.0163837890625,0.006954578682780266,-0.023898940533399582,-0.07373121380805969
1790690962576421600,8.026421630859375,0.02299453131854534,-0.08326400071382523,-0.03688850998878479
1790690962586460000,8.0364599609375,0.0376666858792305,-0.04346358776092529,-0.009739712812006474
1790690962596497700,8.04649755859375,0.03093847446143627,-0.0366448312997818,0.004200603812932968
1790690962606535700,8.05653564453125,0.01432088203728199,-0.01690228469669819,-0.0029617014806717634
1790690962616573700,8.06657373046875,0.001062334980815649,0.0004988100845366716,-0.017222130671143532
1790690962626611700,8.07661181640625,0.007471764925867319,0.010296313092112541,-0.025681395083665848
1790690962636649700,8.086649658203125,0.01474778726696968,0.015780827030539513,-0.027513116598129272
1790690962646687700,8.096687744140626,0.02383449301123619,0.015483618713915348,-0.024289626628160477
1790690962656725800,8.106725830078124,0.03215234354138374,0.008881642483174801,-0.014190919697284698
1790690962666763800,8.116763671875,0.039204128086566925,0.00021225394448265433,0.003373426152393222
1790690962676802800,8.126802734375,0.0450630821287632,-0.011359181255102158,0.025252891704440117
1790690962686840800,8.1368408203125,0.04685778543353081,-0.03928082808852196,0.023551132529973984
1790690962696878600,8.146878662109375,0.04518105834722519,-0.011723235249519348,-0.005864813458174467
1790690962706916900,8.156916748046875,0.0316532664000988,0.01581891067326069,-0.00016405072528868914
1790690962716954600,8.16695458984375,0.023019831627607346,0.007901332341134548,0.020372383296489716
1790690962726993000,8.176992919921876,0.020176375284790993,0.010999121703207493,0.01895984262228012
1790690962737030700,8.18703076171875,0.020324179902672768,0.015995744615793228,-0.005988916382193565
1790690962747069000,8.19706884765625,0.02359906956553459,0.017362479120492935,-0.022248581051826477
1790690962757106700,8.207106689453125,0.01980779320001602,0.010760501958429813,-0.00705737667158246
1790690962767144700,8.217144775390626,0.011390605941414833,-0.004160390235483646,0.0067226174287498
1790690962777182700,8.2271826171875,-0.006903978530317545,-0.015592008829116821,0.007488276343792677
1790690962787220700,8.237220703125,-0.02442598156630993,-0.019809924066066742,0.005982258822768927
1790690962797258800,8.2472587890625,-0.028684642165899277,-0.024215057492256165,0.004193147178739309
1790690962807296800,8.257296875,-0.026152774691581726,-0.018280204385519028,0.01458932925015688
1790690962817334800,8.267334716796874,-0.02243766374886036,-0.01895664632320404,0.021468540653586388
1790690962827372800,8.277372802734375,-0.02293301187455654,-0.010491256602108479,0.017955297604203224
1790690962837410800,8.287410888671875,-0.0017251957906410098,-0.0021816615480929613,-0.02317722514271736
1790690962847449900,8.297449951171876,0.024102939292788506,0.008389223366975784,-0.07336422801017761
1790690962857487600,8.307487548828124,0.04297862574458122,0.009756756946444511,-0.0736132338643074
1790690962867526000,8.31752587890625,0.0430888794362545,-0.007321029901504517,-0.02977866865694523
1790690962877563600,8.327563720703125,0.020084228366613388,-0.01847994141280651,0.007132478058338165
1790690962887602000,8.337601806640626,-0.003230147995054722,-0.026824157685041428,-0.006091448478400707
1790690962897639700,8.3476396484375,-0.0246648658066988,-0.022037390619516373,-0.02389175072312355
1790690962907678000,8.357677978515625,-0.028688635677099228,-0.01623755879700184,-0.013737916015088558
1790690962917715700,8.3677158203125,-0.02395753003656864,-0.007734884973615408,0.020081300288438797
1790690962927753700,8.377753662109376,-0.005755091086030006,-0.009436378255486488,0.05246134474873543
1790690962937791700,8.387791748046874,0.010298177599906921,-0.004740160424262285,0.06102260574698448
1790690962947829800,8.397829833984375,0.020112192258238792,0.008159925229847431,0.07084887474775314
1790690962957867800,8.40786767578125,0.024082167074084282,0.01937050186097622,0.08345015347003937
1790690962967905800,8.41790576171875,0.016354471445083618,0.01278636883944273,0.09857451170682907
1790690962977943600,8.427943603515626,0.010998855344951153,0.011259046383202076,0.06990105658769608
1790690962987981800,8.43798193359375,0.004274639766663313,0.0065191518515348434,0.06652043759822845
1790690962998019600,8.44801953125,-0.0744345560669899,0.05678951367735863,0.06633082032203674
1790690963008057900,8.458057861328125,-0.05206373333930969,0.005392901133745909,0.06615771353244781
1790690963018095600,8.468095703125,-0.027222299948334694,-0.026427345350384712,0.05504807084798813
1790690963028135400,8.478135498046875,-0.033317744731903076,-0.03305728733539581,0.035353731364011765
1790690963038173200,8.488173095703125,-0.051897287368774414,-0.02707635797560215,0.015969112515449524
1790690963048211500,8.49821142578125,-0.10625293850898743,-0.012323778122663498,0.020170515403151512
1790690963058249200,8.508249267578124,-0.15064223110675812,-0.0375676155090332,0.014858308248221874
1790690963068287200,8.518287353515625,-0.14253397285938263,-0.022002236917614937,-0.00517691858112812
1790690963078325200,8.5283251953125,-0.09678060561418533,-0.03062262386083603,0.0035518580116331577
1790690963088363300,8.53836328125,-0.04276717081665993,-0.05463474988937378,0.02376045659184456
1790690963098401300,8.5484013671875,0.010304302908480167,-0.06184286251664162,0.025953836739063263
1790690963108439300,8.558439208984375,0.01853986270725727,-0.0491797961294651,0.016747022047638893
1790690963118477300,8.568477294921875,0.011906727217137814,-0.02263500541448593,0.01715155690908432
1790690963128515300,8.578515380859375,0.026276078075170517,-0.00580835435539484,0.00860467366874218
1790690963138553000,8.588552978515626,0.03700089454650879,0.00986434891819954,-0.00006631271389778703
1790690963148591400,8.59859130859375,0.029742715880274773,0.032650355249643326,-0.018221881240606308
1790690963158629000,8.608629150390625,0.022401712834835052,0.06789542734622955,-0.02605849876999855
1790690963168667400,8.61866748046875,0.02949237823486328,0.04616190120577812,0.007025951519608498
1790690963178705200,8.628705078125,0.028017252683639526,0.03670581802725792,0.01558348722755909
1790690963188743400,8.638743408203124,0.027519509196281433,0.03003539703786373,0.00726430444046855
1790690963198782200,8.6487822265625,-0.002062085550278425,0.033125195652246475,0.025197498500347137
1790690963208820200,8.6588203125,-0.013485714793205261,0.00558278476819396,0.04159751161932945
1790690963218858200,8.668858154296874,0.00851545762270689,0.0057436395436525345,0.02010420337319374
1790690963228896300,8.678896240234375,0.03231586143374443,0.0019952403381466866,0.018261028453707695
1790690963238934300,8.688934326171875,0.03563708811998367,-0.004372644238173962,-0.002983805723488331
1790690963248972300,8.69897216796875,0.021347632631659508,0.02888810634613037,-0.03510632365942001
1790690963259010300,8.70901025390625,-0.011203385889530182,0.018144115805625916,-0.021557755768299103
1790690963269048300,8.71904833984375,-0.03759930655360222,0.00008468852320220321,-0.009807622991502285
1790690963279086300,8.72908642578125,-0.025498434901237488,-0.019234148785471916,-0.0327339768409729
1790690963289124400,8.739124267578125,0.010018013417720795,0.002246110001578927,-0.047150466591119766
1790690963299162000,8.749162109375,0.05000564455986023,-0.029706496745347977,-0.006059490609914064
1790690963309200400,8.759200439453124,0.04567614197731018,-0.03917589783668518,0.008794290944933891
1790690963319238100,8.769238037109375,0.040109336376190186,-0.018940934911370277,-0.02502412721514702
1790690963329276400,8.7792763671875,0.011232946999371052,-0.016815731301903725,-0.041899245232343674
1790690963339314200,8.789314208984376,-0.006213953718543053,-0.007788414601236582,-0.006110889371484518
1790690963349352200,8.799352294921874,-0.01907009817659855,0.004503671545535326,0.008611331693828106
1790690963359390200,8.80939013671875,-0.030780816450715065,0.010343983769416809,0.0375329926609993
1790690963369428200,8.81942822265625,-0.025251293554902077,0.028420189395546913,0.0080925477668643
1790690963379466200,8.82946630859375,-0.0070975907146930695,0.031494542956352234,-0.07427476346492767
1790690963389505000,8.839505126953124,0.021252557635307312,0.02522226609289646,-0.11114276945590973
1790690963399543300,8.849543212890625,0.04722024127840996,0.023541279137134552,-0.0807100236415863
1790690963409581300,8.859581298828125,0.045816488564014435,0.01842188462615013,-0.06275126338005066
1790690963419619300,8.869619384765626,0.032169122248888016,0.02485261857509613,-0.05584968253970146
1790690963429657300,8.8796572265625,0.13247548043727875,0.04599066078662872,-0.07521113008260727
1790690963439695000,8.889695068359375,0.1958605796098709,0.06877453625202179,-0.06636730581521988
1790690963449733400,8.8997333984375,0.22553938627243042,0.13375993072986603,-0.1075482964515686
1790690963459771100,8.909771240234376,0.29349154233932495,0.1831972450017929,-0.17293448746204376
1790690963469809400,8.919809326171874,0.30072200298309326,0.16555513441562653,-0.19681106507778168
1790690963479847200,8.92984716796875,0.2286670058965683,0.19172656536102295,-0.20356644690036774
1790690963489885400,8.939885498046875,0.17014989256858826,0.1354382485151291,-0.18195009231567383
1790690963499923200,8.949923095703125,0.1466970294713974,0.11716923117637634,-0.1465393751859665
1790690963509961200,8.959961181640624,0.11183997988700867,0.09088436514139175,-0.04272535815834999
1790690963519999200,8.969999267578125,0.05124587565660477,-0.0461730882525444,0.13947933912277222
1790690963530037200,8.980037353515625,0.060210876166820526,-0.019510051235556602,0.2568261921405792
1790690963540075300,8.9900751953125,0.04838377609848976,-0.03710741922259331,0.16091617941856384
1790690963550113300,9.00011328125,0.034329745918512344,-0.024454209953546524,0.1494549959897995
1790690963560151300,9.0101513671875,0.020605409517884254,-0.04990604147315025,0.19066262245178223
1790690963570190000,9.020190185546875,0.0018410432385280728,-0.04096181318163872,0.23277784883975983
1790690963580228400,9.030228271484376,-0.02545715682208538,-0.020533237606287003,0.20574863255023956
1790690963590266000,9.04026611328125,-0.04001932218670845,-0.01619494892656803,0.09574863314628601
1790690963600304000,9.05030419921875,-0.034218691289424896,-0.030607176944613457,0.03398140147328377
1790690963610342100,9.060342041015625,-0.01254189107567072,-0.016045546159148216,0.07430778443813324
1790690963620380200,9.070380126953125,0.01104546058923006,-0.007289338391274214,0.0950775146484375
1790690963630418200,9.080418212890624,0.039853405207395554,-0.0004010720585938543,0.053695451468229294
1790690963640456200,9.090456298828125,0.057679805904626846,0.012897422537207603,0.008649148046970367
1790690963650494500,9.100494384765625,0.05541292577981949,0.014495852403342724,-0.05317800119519234
1790690963660532200,9.1105322265625,0.0616934560239315,-0.02997520938515663,-0.08865157514810562
1790690963670570200,9.1205703125,0.05724278464913368,-0.06160663813352585,-0.11104023456573486
1790690963680608300,9.130608154296874,0.07913795858621597,-0.0026783409994095564,-0.1982419788837433
1790690963690646300,9.140646240234375,0.023375364020466805,0.1817445009946823,-0.3168051242828369
1790690963700684300,9.150684326171875,-0.0024892566725611687,0.1091025173664093,-0.093844473361969
1790690963710722300,9.160722412109376,0.008563661016523838,0.011835887096822262,0.00947898905724287
1790690963720760300,9.17076025390625,0.008182828314602375,0.013440707698464394,-0.03681553900241852
1790690963730798300,9.18079833984375,-0.035785429179668427,-0.008709069341421127,-0.03543016314506531
1790690963740836000,9.190836181640625,-0.039808932691812515,-0.04223800078034401,-0.031499069184064865
1790690963750875100,9.200875244140626,-0.0229969285428524,-0.05589602142572403,-0.057558633387088776
1790690963760913200,9.2109130859375,-0.0019044264918193221,-0.06843391805887222,-0.060500096529722214
1790690963770951200,9.220951171875,0.003960386849939823,-0.07803408056497574,-0.06783550977706909
1790690963780989200,9.2309892578125,-0.006630738265812397,-0.07902024686336517,-0.0696408599615097
1790690963791027200,9.241027099609376,-0.025414813309907913,-0.07263877987861633,-0.05881085246801376
1790690963801065200,9.251065185546874,-0.03894766420125961,-0.09307428449392319,-0.0737684965133667
1790690963811103200,9.261103271484375,-0.0448758602142334,-0.02496553771197796,-0.12719710171222687
1790690963821141200,9.271141357421875,-0.06004123389720917,-0.024215323850512505,-0.05559428781270981
1790690963831179300,9.28117919921875,-0.0569293275475502,-0.0380999818444252,0.004186222795397043
1790690963841217300,9.29121728515625,-0.056122925132513046,-0.04127366840839386,0.008806540630757809
1790690963851255300,9.30125537109375,-0.0399940200150013,-0.04514697194099426,0.016995761543512344
1790690963861293300,9.311293212890625,-0.018131865188479424,-0.04283827915787697,0.045516353100538254
1790690963871331300,9.321331298828126,-0.005754558369517326,-0.026921628043055534,0.0489792600274086
1790690963881369300,9.331369384765624,0.0030341395176947117,-0.0025387913919985294,0.049006156623363495
1790690963891407400,9.341407470703125,0.014153103344142437,0.02490188740193844,0.06144977733492851
1790690963901445000,9.351445068359375,0.034201912581920624,0.038295723497867584,0.06931329518556595
1790690963911483400,9.3614833984375,0.04851826652884483,0.048477254807949066,0.06584879010915756
1790690963921521200,9.371521240234374,0.04569132253527641,0.0560092069208622,0.03514733538031578
1790690963931559400,9.381559326171875,0.03362374007701874,0.05413806810975075,-0.006007825024425983
1790690963941598200,9.39159814453125,0.016218651086091995,0.06160184368491173,-0.04216982424259186
1790690963951636200,9.40163623046875,0.004179032519459724,0.04761385917663574,-0.014002367854118347
1790690963961674200,9.41167431640625,-0.0017686053179204464,0.014631939120590687,0.010713097639381886
1790690963971712300,9.421712158203125,-0.004051466938108206,0.019750002771615982,-0.020157465711236
1790690963981750300,9.431750244140625,0.009762083180248737,0.0013409015955403447,-0.03857189416885376
1790690963991788000,9.4417880859375,0.026334667578339577,-0.0017193368403241038,-0.03410843387246132
1790690964001826300,9.451826416015624,0.04728122800588608,0.015263641253113747,-0.04207048937678337
1790690964011864000,9.461864013671875,0.05331861600279808,0.02743535302579403,-0.022586002945899963
1790690964021901600,9.471901611328125,0.039027292281389236,0.03459153324365616,0.013134710490703583
1790690964031939600,9.481939697265625,0.011303787119686604,0.028989041224122047,0.025656094774603844
1790690964041977600,9.4919775390625,-0.007474694401025772,0.023517843335866928,0.03062182478606701
1790690964052015600,9.502015625,-0.0049100699834525585,0.050023484975099564,0.03170786052942276
1790690964062053600,9.5120537109375,0.013184511102735996,0.034270357340574265,0.03924620524048805
1790690964072091600,9.522091552734375,0.029317675158381462,0.024832645431160927,0.04537280648946762
1790690964082129700,9.532129638671876,0.041784465312957764,0.02286856435239315,0.05206746235489845
1790690964092167700,9.542167724609374,0.04195037856698036,0.03832368552684784,0.055996425449848175
1790690964102205400,9.552205322265625,0.035104457288980484,0.014631673693656921,0.05327014625072479
1790690964112243700,9.56224365234375,0.024632375687360764,-0.0010697918478399515,0.04416399821639061
1790690964122281500,9.572281494140626,0.0008266451768577099,-0.006413424387574196,0.0325896330177784
1790690964132320800,9.58232080078125,-0.018228804692626,-0.019936956465244293,0.01582210697233677
1790690964142358500,9.592358642578125,-0.019226957112550735,-0.028920065611600876,0.002418150193989277
1790690964152396800,9.602396728515625,-0.009239038452506065,-0.044003676623106,-0.0010125337867066264
1790690964162434600,9.6124345703125,-0.005242965184152126,-0.055630773305892944,-0.014428207650780678
1790690964172472800,9.622472900390624,-0.005240302067250013,-0.04478691145777702,-0.022106368094682693
1790690964182510600,9.632510498046875,0.0034876756835728884,-0.02533544972538948,-0.03182850405573845
1790690964192548600,9.642548583984375,0.015573899261653423,-0.03653936833143234,-0.0477621965110302
1790690964202586600,9.652586669921876,-0.013562147505581379,-0.07256767898797989,-0.03532576560974121
1790690964212624600,9.662624755859374,-0.03681314364075661,-0.05076783895492554,-0.01690175198018551
1790690964222662700,9.67266259765625,-0.04151521995663643,-0.04622821509838104,0.04121081903576851
1790690964232700700,9.68270068359375,-0.05038301274180412,-0.054234474897384644,0.040595896542072296
1790690964242738700,9.69273876953125,-0.046719569712877274,-0.024926388636231422,0.026154106482863426
1790690964252776700,9.702776611328124,-0.03377314284443855,-0.011455587111413479,0.03833753615617752
1790690964262814500,9.712814453125,-0.019591277465224266,0.004194744862616062,0.04655471816658974
1790690964272852700,9.722852783203125,-0.0024557008873671293,0.010458500124514103,0.02588432841002941
1790690964282890500,9.732890380859375,0.007254184223711491,0.016080433502793312,0.0014229270163923502
1790690964292928800,9.7429287109375,0.0075609805062413216,0.009558351710438728,-0.03248896822333336
1790690964302966500,9.752966552734375,0.005950567312538624,-0.07861172407865524,-0.07294850796461105
1790690964313004500,9.763004638671875,-0.005060538649559021,0.04701065272092819,-0.12927968800067902
1790690964323043600,9.773043701171876,-0.007870972156524658,0.028140291571617126,-0.10911796241998672
1790690964333081600,9.78308154296875,0.004160123877227306,-0.004626177251338959,-0.109637551009655
1790690964343119600,9.79311962890625,0.022493591532111168,-0.015036207623779774,-0.10601085424423218
1790690964353157600,9.80315771484375,0.027334684506058693,0.011835887096822262,-0.11067324876785278
1790690964363195600,9.813195556640625,0.01709749363362789,0.03528155758976936,-0.09718487411737442
1790690964373233700,9.823233642578124,0.0037649108562618494,0.05236360430717468,-0.07531525939702988
1790690964383271700,9.833271728515625,0.00035899411886930466,0.05637858808040619,-0.03791382536292076
1790690964393309700,9.843309814453125,0.0023254721891134977,0.0520903654396534,-0.00703793577849865
1790690964403347500,9.853347412109375,0.0010801780736073852,0.05590294674038887,-0.011472897604107857
1790690964413385700,9.8633857421875,-0.007604124024510384,0.05205680802464485,-0.037748176604509354
1790690964423423500,9.873423583984374,-0.015895875170826912,0.05714238062500954,-0.03788772597908974
1790690964433461800,9.883461669921875,0.0010436928132548928,0.05716235563158989,-0.03906697407364845
1790690964443499500,9.89349951171875,0.020852817222476006,0.04898858070373535,-0.03256140649318695
1790690964453537800,9.903537841796876,0.024159930646419525,0.038653917610645294,-0.042819369584321976
1790690964463575600,9.913575439453124,0.01642131805419922,-0.0007395598222501576,-0.057684335857629776
1790690964473613600,9.923613525390625,-0.0049398974515497684,-0.01888447441160679,-0.03567757084965706
1790690964483651600,9.933651611328125,-0.018250109627842903,-0.01218582596629858,-0.029704898595809937
1790690964493689600,9.943689697265626,-0.027173830196261406,-0.027770644053816795,0.019213108345866203
1790690964503727600,9.9537275390625,-0.0019600866362452507,-0.03297499567270279,0.049977146089076996
1790690964513766400,9.963766357421875,0.010957576334476471,-0.02515808306634426,0.020242154598236084
1790690964523804700,9.9738046875,0.010860370472073555,-0.008462460711598396,0.0017592841759324074
1790690964533842700,9.9838427734375,-0.000844754686113447,0.0007749798824079335,0.011724300682544708
1790690964543880700,9.993880615234374,-0.017777131870388985,-0.004601942375302315,0.015384282916784286
1790690964553918700,10.003918701171875,-0.026333868503570557,-0.015238340944051743,0.010116017423570156
1790690964563956500,10.01395654296875,-0.03274702653288841,-0.022971628233790398,0.005891711451113224
1790690964573994800,10.023994873046876,-0.03394704684615135,-0.01805783063173294,-0.009802030399441719
1790690964584032500,10.034032470703124,-0.031568579375743866,-0.007400658447295427,-0.010547716170549393
1790690964594070800,10.04407080078125,-0.023574568331241608,0.005228051450103521,-0.0029819414485245943
1790690964604108500,10.054108642578125,-0.01025609951466322,0.01191258616745472,-0.0033726270776242018
1790690964614146800,10.064146728515626,0.005860818549990654,-0.0005398227367550135,-0.0213638786226511
1790690964624184600,10.0741845703125,0.016292953863739967,-0.009673666208982468,-0.0434287004172802
1790690964634222600,10.08422265625,0.013191968202590942,-0.018373681232333183,-0.059967730194330215
1790690964644260600,10.094260498046875,0.004483431577682495,-0.018763035535812378,-0.06758756935596466
1790690964654298600,10.104298583984376,-0.0004165183927398175,-0.015214106999337673,-0.05155826732516289
1790690964664336600,10.114336669921874,0.006642722524702549,0.0029640982393175364,-0.04453311488032341
1790690964674374700,10.124374755859375,0.017239706590771675,0.02010313794016838,-0.028660407289862633
1790690964684412700,10.13441259765625,0.024414794519543648,0.03906217962503433,-0.013731790706515312
1790690964694450700,10.14445068359375,0.029561620205640793,0.05143895745277405,-0.008204400539398193
1790690964704488400,10.154488525390626,0.03320908546447754,0.0560198612511158,0.008406533859670162
1790690964714526700,10.164526611328125,0.03351827710866928,0.055745553225278854,0.015144065022468567
1790690964724565500,10.1745654296875,0.030349915847182274,0.0482490211725235,0.00945129245519638
1790690964734603500,10.184603515625,0.023688284680247307,0.0421258807182312,0.010460363700985909
1790690964744641500,10.1946416015625,0.02322196587920189,0.031626902520656586,0.024779116734862328
1790690964754679600,10.204679443359375,0.021454691886901855,0.023087475448846817,0.03809385746717453
1790690964764717600,10.214717529296875,0.019820310175418854,0.017074856907129288,0.041606832295656204
1790690964774755800,10.224755859375,0.020851751789450645,0.01062334980815649,0.03227032348513603
1790690964784793600,10.234793701171874,0.022945262491703033,0.0023851271253079176,0.025777002796530724
1790690964794831600,10.24483154296875,0.0208903681486845,-0.0017310547409579158,0.009562612511217594
1790690964804869600,10.25486962890625,0.006972155533730984,-0.009429454803466797,0.0030868700705468655
1790690964814907600,10.26490771484375,-0.010177269577980042,-0.0172698013484478,-0.003498861100524664
1790690964824945700,10.274945556640626,-0.02371544949710369,-0.020622720941901207,-0.0032839439809322357
1790690964834983700,10.284983642578124,-0.025467542931437492,-0.014667625539004803,0.0021611552219837904
1790690964845021700,10.295021728515625,-0.015119564719498158,-0.004988367203623056,0.013196495361626148
1790690964855059700,10.305059814453125,-0.0014484933344647288,0.007241667713969946,0.01269662007689476
1790690964865097500,10.315097412109376,0.019029350951313972,0.012330436147749424,0.0035547874867916107
1790690964875135700,10.3251357421875,0.015805328264832497,0.0072778863832354546,0.0036647759843617678
1790690964885173500,10.335173583984375,-0.00512844929471612,-0.00022024342615623027,0.012946957722306252
1790690964895211800,10.345211669921875,-0.006054962985217571,-0.013718475587666035,-0.015282017178833485
1790690964905249500,10.35524951171875,-0.014343253336846828,-0.03519713506102562,-0.04692303389310837
1790690964915287600,10.36528759765625,-0.029503297060728073,-0.0455286018550396,-0.04670385643839836
1790690964925326600,10.37532666015625,-0.04910203069448471,-0.052325520664453506,-0.043772779405117035
1790690964935364600,10.385364501953125,-0.07341776043176651,-0.021257618442177773,-0.04327370598912239
1790690964945402600,10.395402587890626,-0.04054875671863556,-0.022788137197494507,-0.03969681262969971
1790690964955440600,10.405440673828124,-0.016288159415125847,-0.007186539936810732,-0.002883404493331909
1790690964965478700,10.415478759765625,0.01618935540318489,0.010325874201953411,-0.005265069659799337
1790690964975516700,10.4255166015625,0.08698230236768723,0.052613675594329834,-0.026814570650458336
1790690964985554700,10.4355546875,0.1578681915998459,0.05727900192141533,-0.024871261790394783
1790690964995592700,10.4455927734375,0.12116876989603043,0.09802243858575821,-0.026489930227398872
1790690965005630500,10.45563037109375,0.09641841799020767,0.0552227757871151,-0.01967836357653141
1790690965015668700,10.465668701171875,0.0858246237039566,0.05969102680683136,-0.029233252629637718
1790690965025707000,10.47570703125,0.10024245083332062,0.052934322506189346,-0.03303464874625206
1790690965035745000,10.4857451171875,0.10974247753620148,0.04633021354675293,-0.015114503912627697
1790690965045783000,10.495782958984375,0.1521623730659485,0.05072416365146637,-0.01967090740799904
1790690965055821000,10.505821044921875,0.16788433492183685,-0.011864116415381432,-0.038837675005197525
1790690965065859000,10.515859130859376,0.1661090850830078,0.031082285568118095,-0.06695133447647095
1790690965075897000,10.52589697265625,0.14775004982948303,0.04303082451224327,-0.09614676982164383
1790690965085934800,10.535934814453125,0.128627210855484,0.11112066358327866,-0.1123017743229866
1790690965095973000,10.54597314453125,0.10439058393239975,0.06793350726366043,-0.0732012465596199
1790690965106011000,10.556010986328126,0.030591465532779694,-0.05481451377272606,-0.054243531078100204
1790690965116049200,10.566049072265624,-0.04313974827528,0.0133863789960742,-0.05921325460076332
1790690965126088000,10.576087890625,-0.06830981373786926,0.07970361411571503,-0.04872492700815201
1790690965136126000,10.5861259765625,-0.07251814007759094,0.069477878510952,0.02943139150738716
1790690965146164000,10.5961640625,-0.04140496253967285,0.057729609310626984,0.05873788148164749
1790690965156202000,10.606201904296874,-0.0024708807468414307,0.007740477565675974,0.03428873047232628
1790690965166240000,10.616239990234375,0.028861742466688156,0.021943913772702217,0.04892466589808464
1790690965176277800,10.62627783203125,0.02664759010076523,-0.01780855841934681,0.03140958771109581
1790690965186316000,10.63631591796875,0.003979295492172241,-0.010756241157650948,0.048218660056591034
1790690965196353800,10.646353759765624,-0.03949441388249397,0.01828739419579506,0.03453081101179123
1790690965206392000,10.65639208984375,-0.04748788848519325,-0.01805703155696392,0.030590400099754333
1790690965216429800,10.666429931640625,-0.04481381177902222,-0.02725505642592907,0.05829526484012604
1790690965226468000,10.676468017578125,-0.051536425948143005,-0.02936188317835331,0.05338333174586296
1790690965236506000,10.686506103515624,-0.06267429888248444,-0.03484053909778595,0.023380689322948456
1790690965246544000,10.6965439453125,-0.06928213685750961,-0.011010040529072285,0.015045528300106525
1790690965256582100,10.70658203125,-0.08361819386482239,-0.03099014051258564,0.019174760207533836
1790690965266620000,10.716619873046875,-0.10713763535022736,-0.036376383155584335,-0.003359045134857297
1790690965276658200,10.726658203125,-0.14523282647132874,-0.04725033789873123,-0.013686250895261765
1790690965286696000,10.736696044921874,-0.14731168746948242,-0.013484117574989796,0.023447802290320396
1790690965296734200,10.746734130859375,-0.1541445553302765,-0.04897686466574669,0.01182416919618845
1790690965306772000,10.75677197265625,-0.13112446665763855,-0.0755445584654808,-0.02046719193458557
1790690965316810000,10.76681005859375,-0.10860291123390198,-0.04355466738343239,-0.010330135934054852
1790690965326848000,10.776847900390624,-0.09556487202644348,-0.0035718316212296486,0.047266047447919846
1790690965336886000,10.786885986328125,-0.10127735137939453,-0.09983125329017639,0.05232765153050423
1790690965346925000,10.796925048828125,-0.06612575799226761,-0.19522781670093536,0.04459330067038536
1790690965356962800,10.806962890625,-0.003126817522570491,0.03193343058228493,0.0360536091029644
1790690965367001000,10.8170009765625,-0.007010771427303553,-0.04242522269487381,0.01972843147814274
1790690965377038800,10.827038818359375,-0.027636421844363213,-0.08115211129188538,-0.004553738981485367
1790690965387077000,10.8370771484375,-0.05413913354277611,0.008469917811453342,0.05481744185090065
1790690965397115000,10.847114990234376,-0.053695451468229294,-0.1464426964521408,0.09791138023138046
1790690965407153000,10.85715283203125,-0.035291146486997604,-0.3317744731903076,0.15335893630981445
1790690965417191000,10.86719091796875,0.014831144362688065,-0.3747219443321228,0.18498103320598602
1790690965427229000,10.87722900390625,0.04628147929906845,-0.42915427684783936,0.18113090097904205
1790690965437267000,10.887266845703126,0.059911005198955536,-0.41159766912460327,0.17871861159801483
1790690965447305000,10.897304931640624,0.036739639937877655,-0.07085686177015305,-0.02899729646742344
1790690965457343000,10.907343017578125,0.26894572377204895,-0.15807779133319855,0.0849524438381195
1790690965467381000,10.917381103515625,0.01011228933930397,-0.2505858838558197,0.16059713065624237
1790690965477419000,10.9274189453125,-0.04248727113008499,-0.36433055996894836,-0.10113540291786194
1790690965487457000,10.93745703125,-0.15550783276557922,-0.20790739357471466,-0.17320694029331207
1790690965497495000,10.9474951171875,-0.13849955797195435,-0.07207392901182175,-0.0995553508400917
1790690965507533000,10.957532958984375,0.03712286800146103,0.036969203501939774,-0.0731479823589325
1790690965517571000,10.967571044921876,0.06772605329751968,0.12614434957504272,-0.09975428879261017
1790690965527608800,10.97760888671875,0.0808759406208992,0.07209842652082443,-0.051240816712379456
1790690965537647000,10.987647216796875,0.0732095018029213,0.03699849918484688,-0.015294534154236317
1790690965547684900,10.997684814453125,0.020786505192518234,0.054971106350421906,-0.00002370213405811228
1790690965557724000,11.007723876953126,-0.01810523495078087,0.031153658404946327,0.022894663736224174
1790690965567762000,11.017761962890624,-0.02420121058821678,-0.000645550258923322,0.06300985813140869
1790690965577800000,11.027800048828125,-0.014466291293501854,-0.3209625780582428,0.013015666976571083
1790690965587838000,11.037837890625,-0.016751283779740334,0.18493549525737762,0.024828916415572166
1790690965597876000,11.0478759765625,-0.10624920576810837,0.01666872575879097,0.24085095524787903
1790690965607914000,11.0579140625,-0.1447281539440155,0.02395300380885601,0.09674971550703049
1790690965617951700,11.06795166015625,-0.10446781665086746,-0.01601172238588333,-0.012288890779018402
1790690965627990000,11.077989990234375,-0.012500878423452377,-0.01708098314702511,-0.015807991847395897
1790690965638028000,11.088028076171875,0.027758926153182983,-0.04718535393476486,-0.05231247469782829
1790690965648066000,11.098066162109374,-0.0051747881807386875,-0.05619988963007927,-0.08303949236869812
1790690965658104000,11.10810400390625,-0.04175597056746483,-0.04020041599869728,-0.07132131606340408
1790690965668142000,11.11814208984375,-0.05149807780981064,-0.03402135148644447,-0.06399229913949966
1790690965678180000,11.12818017578125,-0.043117642402648926,-0.024880848824977875,-0.056044094264507294
1790690965688217900,11.1382177734375,-0.014243118464946747,-0.019707923755049706,-0.027224963530898094
1790690965698256100,11.148256103515624,-0.010070211254060268,-0.016534501686692238,-0.024642495438456535
1790690965708294000,11.1582939453125,-0.007694138679653406,-0.010702178813517094,-0.01158581580966711
1790690965718332200,11.168332275390625,0.00040506679215468466,-0.020909275859594345,0.015294267795979977
1790690965728370000,11.178369873046876,-0.0006018743733875453,-0.006641124840825796,0.03802541270852089
1790690965738408200,11.188408203125,0.0029739518649876118,-0.005674663465470076,0.061590392142534256
1790690965748446000,11.198446044921875,0.013678262010216713,-0.009909089654684067,0.0711415559053421
1790690965758484000,11.20848388671875,0.033490050584077835,0.010237457230687141,0.07113809138536453
1790690965768522000,11.21852197265625,0.03273158147931099,0.01564127765595913,0.058461446315050125
1790690965778560000,11.22856005859375,0.021709023043513298,0.02190689742565155,0.035657331347465515
1790690965788599000,11.23859912109375,0.032578449696302414,0.011836685240268707,0.002282062778249383
1790690965798636800,11.24863671875,0.05193430557847023,0.024831047281622887,0.013918745331466198
1790690965808675000,11.258675048828126,0.05892616882920265,0.0038242992013692856,0.006132727488875389
1790690965818712800,11.268712890625,0.055397745221853256,-0.010276073589920998,0.002246110001578927
1790690965828751000,11.278751220703125,0.05916478484869003,0.014969894662499428,0.007781490217894316
1790690965838788900,11.288788818359375,0.054427288472652435,-0.00239258399233222,0.027341343462467194
1790690965848827000,11.298826904296876,0.04131707921624184,0.025954902172088623,0.030584273859858513
1790690965858865000,11.308864990234374,0.04909111186861992,0.012507801875472069,0.02606036327779293
1790690965868903000,11.31890283203125,0.17563654482364655,2.743551254272461,0.26048964262008667
1790690965878941200,11.328941162109375,0.1425880342721939,-1.3611738681793213,0.36386343836784363
1790690965888979000,11.33897900390625,0.11903397738933563,0.4761100709438324,0.0062943813391029835
1790690965899017200,11.349017333984374,0.008472580462694168,0.08058992028236389,-0.022214224562048912
1790690965909055000,11.359054931640625,0.022773755714297295,-0.01104412879794836,0.058168765157461166
1790690965919093000,11.369093017578125,-0.015966715291142464,-0.026187662035226822,0.011665178462862968
1790690965929131000,11.379131103515626,0.004990497604012489,-0.029137644916772842,0.010026535019278526
1790690965939169000,11.3891689453125,0.0005944175645709038,-0.012854546308517456,-0.04799628630280495
1790690965949207000,11.39920703125,-0.03449885547161102,0.013882792554795742,-0.01840111054480076
1790690965959245000,11.4092451171875,-0.03819612041115761,-0.04386918619275093,-0.011572766117751598
1790690965969283000,11.419282958984375,-0.021022994071245193,-0.017790181562304497,0.012564794160425663
1790690965979321000,11.429321044921876,-0.008859537541866302,-0.02334314025938511,-0.017419470474123955
1790690965989358800,11.43935888671875,-0.009415606036782265,-0.039868853986263275,-0.007107444107532501
1790690965999397000,11.449397216796875,-0.003397660795599222,-0.04674353823065758,0.01272724661976099
1790690966009435000,11.459434814453125,0.0018407768802717328,-0.046415168792009354,0.0036048549227416515
1790690966019474000,11.469473876953124,0.002834934974089265,-0.029952039942145348,0.009676596149802208
1790690966029512700,11.4795126953125,0.004630970768630505,0.006579872220754623,0.025363679975271225
1790690966039550500,11.489550537109375,0.03202344477176666,0.0006042712484486401,-0.013965350575745106
1790690966049588700,11.499588623046876,0.03984275460243225,0.035776108503341675,-0.009866745211184025
1790690966059626500,11.50962646484375,0.007128749508410692,-0.004334294702857733,-0.038055773824453354
1790690966069664800,11.519664794921875,-0.031247667968273163,-0.00012783173588104546,-0.038789473474025726
1790690966079702500,11.52970263671875,-0.0340045727789402,0.009560481645166874,-0.01070697233080864
1790690966089740800,11.53974072265625,-0.025298964232206345,0.022283734753727913,-0.004801945760846138
1790690966099778600,11.549778564453124,-0.0008370315190404654,0.0361018106341362,0.02845294587314129
1790690966109816600,11.559816650390625,0.03741022199392319,0.05680682510137558,0.06343249976634979
1790690966119854600,11.5698544921875,0.06456993520259857,0.051533766090869904,0.06522107869386673
1790690966129892600,11.579892578125,0.05756982043385506,0.035176362842321396,0.05323685705661774
1790690966139930600,11.5899306640625,0.03640807420015335,0.012603675946593285,0.0401410274207592
1790690966149968600,11.59996875,0.006258961278945208,-0.014701182022690773,0.01884479448199272
1790690966160006700,11.610006591796875,-0.029524069279432297,-0.02881726622581482,0.005932990461587906
1790690966170044700,11.620044677734375,-0.04994252696633339,-0.026013491675257683,0.005152684170752764
1790690966180082400,11.63008251953125,-0.04797018691897392,-0.01810656487941742,0.004918059334158897
1790690966190120700,11.64012060546875,-0.03748505562543869,0.00044581317342817783,0.008893360383808613
1790690966200158700,11.65015869140625,-0.026267556473612785,0.010509632527828217,0.004605138208717108
1790690966210196700,11.66019677734375,-0.01782054267823696,0.005275722127407789,0.011313374154269695
1790690966220234800,11.67023486328125,-0.02274366095662117,-0.004090881906449795,0.008257397450506687
1790690966230272800,11.680272705078124,-0.040229976177215576,-0.02111380733549595,-0.00675271125510335
1790690966240311600,11.6903115234375,-0.060507819056510925,-0.04831693321466446,-0.0031787490006536245
1790690966250349800,11.700349853515625,-0.06621923297643661,-0.05766063183546066,0.019538814201951027
1790690966260387600,11.7103876953125,-0.0745253637433052,-0.056236907839775085,0.027837224304676056
1790690966270425600,11.720425537109374,-0.08531143516302109,-0.051351603120565414,0.024767132475972176
1790690966280463600,11.730463623046875,-0.09205376356840134,-0.03178349509835243,0.030066022649407387
1790690966290501600,11.740501708984375,-0.10751660913228989,-0.020868264138698578,0.03256699815392494
1790690966300539600,11.75053955078125,-0.17234113812446594,-0.0028538433834910393,0.009151154197752476
1790690966310577700,11.76057763671875,-0.3140524625778198,0.0013544837711378932,-0.07877177745103836
1790690966320615700,11.77061572265625,-0.3807870149612427,-0.03560220077633858,-0.0518709197640419
1790690966330653700,11.78065380859375,-0.4042516052722931,-0.05693145841360092,0.0067969197407364845
1790690966340691500,11.79069140625,-0.4629191756248474,-0.047513723373413086,-0.10069864988327026
1790690966350729700,11.800729736328124,-0.5349670052528381,0.05395697429776192,-0.28439152240753174
1790690966360767500,11.810767578125,-0.538642406463623,0.08023518323898315,-0.18663619458675385
1790690966370805800,11.8208056640625,-0.3653776943683624,-0.048896171152591705,0.0711471438407898
1790690966380843500,11.830843505859375,-0.25985369086265564,-0.07535494118928909,0.017499098554253578
1790690966390881500,11.840881591796874,-0.15484124422073364,-0.04994598776102066,-0.038007836788892746
1790690966400919600,11.85091943359375,-0.07824207097291946,-0.012690494768321514,-0.003008306724950671
1790690966410957600,11.86095751953125,-0.07570648193359375,0.03960946202278137,-0.047680169343948364
1790690966420995800,11.870995849609375,-0.13782498240470886,0.08079524338245392,-0.08119392395019531
1790690966431033600,11.88103369140625,-0.2579590976238251,0.0474356934428215,-0.0825960785150528
1790690966441071900,11.89107177734375,-0.07197485864162445,0.6771012544631958,-0.32402732968330383
1790690966451109600,11.901109619140625,0.05018194392323494,1.4266964197158813,-0.4971061646938324
1790690966461147600,11.911147705078125,0.16465339064598083,0.9661447405815125,-0.42829594016075134
1790690966471185700,11.921185546875,0.11129270493984222,-0.7965272665023804,0.4208817183971405
1790690966481224400,11.931224365234375,0.11238352954387665,-0.17155417799949646,0.3318258821964264
1790690966491262700,11.9412626953125,0.15882480144500732,0.14168229699134827,0.06265565752983093
1790690966501300500,11.951300537109375,0.14235900342464447,0.46596476435661316,-0.15492726862430573
1790690966511338800,11.9613388671875,0.0768204778432846,0.2962321937084198,-0.10213036090135574
1790690966521376500,11.97137646484375,0.02365659363567829,-0.27913549542427063,0.13356897234916687
1790690966531414800,11.981414794921875,0.023315176367759705,0.17035602033138275,-0.001264468883164227
1790690966541452500,11.99145263671875,0.04141987860202789,-0.0484362430870533,-0.06586769968271255
1790690966551490600,12.001490478515626,0.036614470183849335,0.0004010720585938543,-0.024927986785769463
1790690966561528600,12.011528564453124,0.06367245316505432,-0.05534021928906441,0.014516624622046947
1790690966571566600,12.021566650390625,0.14344024658203125,-0.008039550855755806,-0.019819511100649834
1790690966581604600,12.0316044921875,0.25492337346076965,-0.07488808780908585,0.004405667539685965
1790690966591642600,12.041642578125,0.3768114447593689,0.058346930891275406,-0.08897248655557632
1790690966601680600,12.0516806640625,0.4471298158168793,-0.08772052824497223,-0.09221594780683517
1790690966611718700,12.06171875,0.4951740503311157,-0.2048833668231964,-0.04565270617604256
1790690966621756700,12.071756591796875,0.4936155676841736,0.22172200679779053,-0.036621127277612686
1790690966631794700,12.081794677734376,0.5088147521018982,0.21900612115859985,-0.01091789547353983
1790690966641832700,12.091832763671874,0.4836423099040985,-0.09071818739175797,-0.009374060668051243
1790690966651870700,12.10187060546875,0.40183743834495544,0.08831734210252762,-0.06788157671689987
1790690966661908700,12.11190869140625,0.22288207709789276,0.048340100795030594,-0.07325104624032974
1790690966671946800,12.12194677734375,0.04536375403404236,0.0487305223941803,-0.016043681651353836
1790690966681984800,12.13198486328125,-0.023423034697771072,0.02983725816011429,0.033609624952077866
1790690966692022500,12.1420224609375,-0.0033095101825892925,0.006938599981367588,0.03032142110168934
1790690966702060800,12.152060791015625,0.03145592659711838,0.005145493429154158,0.0398736447095871
1790690966712098600,12.1620986328125,0.056710418313741684,0.0005819007055833936,0.027419906109571457
1790690966722136800,12.17213671875,0.06946935504674911,-0.009858223609626293,-0.02658713608980179
1790690966732175600,12.182175537109375,0.04776991903781891,-0.01432461105287075,-0.06006307154893875
1790690966742213600,12.192213623046875,0.014088388532400131,-0.02340705506503582,-0.04999206215143204
1790690966752251600,12.202251708984376,-0.004474110435694456,-0.032759811729192734,-0.054479219019412994
1790690966762289700,12.21228955078125,-0.0186019130051136,-0.031084150075912476,-0.06745387613773346
1790690966772327700,12.22232763671875,-0.024562334641814232,-0.041790325194597244,-0.06575264781713486
1790690966782365400,12.232365478515625,-0.03569461405277252,-0.03307885676622391,-0.03827228769659996
1790690966792403700,12.24240380859375,-0.033902041614055634,-0.03785417228937149,-0.025297632440924644
1790690966802441500,12.25244140625,-0.022274145856499672,-0.0581653006374836,-0.041180990636348724
